"Time (s)","Linear Acceleration x (m/s^2)","Linear Acceleration y (m/s^2)","Linear Acceleration z (m/s^2)","Absolute acceleration (m/s^2)"
3.233854170E-2,1.098364377E-1,9.742689192E-2,-5.325118498E-1,5.523811297E-1
4.233254166E-2,5.966937393E-3,1.120396686E-1,-3.413172900E-1,3.592853798E-1
5.232754163E-2,-7.054197907E-2,1.388690329E-1,-2.415859739E-1,2.874448849E-1
6.232254184E-2,-1.746352816E-1,1.190083802E-1,-2.373292009E-1,3.177823559E-1
7.231654180E-2,-1.742503886E-1,4.706540823E-2,-2.050993482E-1,2.732107121E-1
8.231154177E-2,-1.336366519E-1,-5.820435405E-2,-1.540875810E-1,2.121072469E-1
9.230654174E-2,-6.909325831E-2,-1.779108918E-1,-1.642015100E-1,2.517703311E-1
1.023005417E-1,1.255453480E-1,-1.622999954E-1,-1.480918461E-1,2.530496351E-1
1.122955417E-1,1.798673701E-1,-3.434011281E-2,-3.425415874E-2,1.862924088E-1
1.222905417E-1,1.762602228E-1,-2.882560372E-2,3.448103070E-2,1.818997610E-1
1.322845418E-1,2.149334148E-1,-9.124053776E-2,6.786468521E-2,2.431600790E-1
1.422795418E-1,1.669904125E-1,-7.394973636E-2,7.565697715E-2,1.976824210E-1
1.522745418E-1,1.594557635E-2,-9.471904635E-3,-8.555719033E-3,2.042495314E-2
1.622685418E-1,4.308615871E-2,-7.289723754E-3,-1.324598998E-1,1.394818346E-1
1.722635417E-1,1.698671696E-1,-1.019994146E-1,-2.140754820E-1,2.916968424E-1
1.822585417E-1,1.693875517E-1,-1.481357002E-1,-2.141649444E-1,3.106492424E-1
1.922525417E-1,2.098670948E-1,-1.363319260E-1,-1.676537061E-1,3.012280808E-1
2.022475416E-1,2.468028597E-1,-1.055404884E-1,-1.308660950E-1,2.986241468E-1
2.122425418E-1,2.241423409E-1,-6.033040166E-2,-1.009651883E-1,2.531274690E-1
2.222365418E-1,1.797857284E-1,-5.126721740E-2,-5.451461479E-2,1.947384886E-1
2.322315418E-1,1.540417535E-1,-7.406960428E-2,1.007460639E-2,1.712211021E-1
2.422265417E-1,1.001428505E-1,-6.615832150E-2,6.471449777E-2,1.363579122E-1
2.522205417E-1,3.492541909E-3,-2.160019934E-2,4.297937393E-2,4.822855009E-2
2.622155417E-1,-8.347083069E-2,4.358105242E-2,-1.218922269E-1,1.540272791E-1
2.722105416E-1,-4.240335010E-2,4.245195508E-2,-3.376107766E-1,3.429012235E-1
2.822045418E-1,-1.365909576E-2,2.995996356E-2,-4.921018155E-1,4.932021564E-1
2.921995418E-1,-6.521567725E-2,7.225345910E-2,-5.600302354E-1,5.684254669E-1
3.021945418E-1,-6.439173147E-2,7.153892934E-2,-4.949171036E-1,5.041895011E-1
3.121885417E-1,-1.152997836E-1,3.465761662E-2,-3.779705979E-1,3.966824465E-1
3.221835417E-1,-1.465185796E-1,2.649841189E-2,-2.609822845E-1,3.004689882E-1
3.321785417E-1,-1.211404212E-1,5.307049870E-2,-2.383892280E-1,2.726186045E-1
3.421725417E-1,-8.582930513E-2,1.138435346E-1,-3.513907635E-1,3.792129859E-1
3.521675416E-1,-1.055931133E-1,1.938960099E-1,-5.592025620E-1,6.012096752E-1
3.621625418E-1,-7.579393356E-1,2.240261275E-1,-4.947808635E-1,9.324525967E-1
3.721575418E-1,-8.134492195E-1,2.588661772E-1,-3.617958838E-1,9.271502532E-1
3.821515418E-1,-5.971666329E-1,2.249809778E-1,-2.242529994E-1,6.763976904E-1
3.921465417E-1,-3.544541929E-1,1.869664747E-1,-1.926265794E-1,4.446338230E-1
4.021415417E-1,3.097343221E-3,3.178195596E-2,-3.851293440E-1,3.864508997E-1
4.121355417E-1,1.825225908E-1,2.055881023E-3,-7.074476051E-1,7.306167510E-1
4.221305416E-1,-3.152400604E-1,8.836897016E-2,-5.744228643E-1,6.611709292E-1
4.321255418E-1,-3.746529608E-1,3.037891656E-1,-5.766828132E-1,7.518083301E-1
4.421195418E-1,-4.886734468E-1,4.307743174E-1,-3.898154488E-1,7.591602823E-1
4.521145418E-1,-8.268760347E-1,5.866786283E-1,-1.771910995E-2,1.014016645E0
4.621095418E-1,-8.615071195E-1,4.627948397E-1,-1.911215061E-1,9.964441835E-1
4.721036667E-1,-1.910781636E-1,5.865546674E-1,-2.619005898E-1,6.701859155E-1
4.820986667E-1,1.890624822E-1,4.324916446E-1,-4.251995820E-1,6.352860217E-1
4.920936667E-1,3.358415188E-1,3.101450890E-1,-3.409189850E-1,5.702677058E-1
5.020876667E-1,2.981592106E-1,2.156733799E-1,1.454144061E-1,3.956757146E-1
5.120826666E-1,-2.296877671E-2,1.148229432E-1,5.970591903E-1,6.084336855E-1
5.220776668E-1,-1.739407054E-1,1.878938431E-1,9.112844664E-1,9.465721546E-1
5.320716668E-1,-2.341798905E-1,2.134502685E-1,1.062589942E0,1.108827590E0
5.420666668E-1,-2.780218019E-1,1.254327160E-1,9.578692335E-1,1.005257657E0
5.520616667E-1,-5.017192427E-1,-5.879375339E-3,8.497781897E-1,9.868534527E-1
5.620556667E-1,-7.267002205E-1,-1.270155573E-1,6.435176575E-1,9.789489965E-1
5.720506667E-1,-8.948837574E-1,-3.455704451E-4,7.887554777E-1,1.192875627E0
5.820456666E-1,-9.759077476E-1,2.484873694E-1,9.508189532E-1,1.384990464E0
5.920396668E-1,-9.982979058E-1,3.635231513E-1,9.344581515E-1,1.414906296E0
6.020346668E-1,-1.159968156E0,1.522269970E-1,5.696696627E-1,1.301238912E0
6.120296668E-1,-1.025871913E0,1.322698653E-1,2.347259474E-1,1.060662420E0
6.220236667E-1,-6.905988532E-1,1.853356862E-1,2.944073081E-3,7.150417892E-1
6.320186667E-1,-5.763389603E-1,-3.182464063E-2,-5.763366580E-2,5.800871007E-1
6.420136667E-1,-3.668886624E-1,-3.286392474E-1,-1.362740386E-1,5.110593499E-1
6.520076666E-1,3.077535778E-3,-1.968424219E-1,-1.061257946E-1,2.236494904E-1
6.620026669E-1,2.463496274E-1,1.352110147E-1,-2.857563525E-1,4.007827971E-1
6.719976668E-1,1.574489260E-1,2.536551386E-1,-6.125589895E-1,6.814393658E-1
6.819916668E-1,-8.984100670E-2,1.688494617E-1,-8.108374876E-1,8.330900182E-1
6.919866668E-1,-3.086295638E-1,1.157105505E-1,-7.228705135E-1,7.944702124E-1
7.019816667E-1,-4.836424293E-1,1.618140918E-1,-4.641809222E-1,6.896069375E-1
7.119766667E-1,-6.343160404E-1,-1.877540946E-3,-1.623485273E-1,6.547651553E-1
7.219706667E-1,-4.445259453E-1,-5.509579879E-1,-3.704977101E-1,7.990160034E-1
7.319656666E-1,-2.019284762E-1,-8.575111324E-1,-5.564584637E-1,1.041991590E0
7.419606668E-1,1.715283635E-1,-7.703355789E-1,-5.172400188E-1,9.435974357E-1
7.519546668E-1,5.840560059E-1,-4.702845383E-1,-2.446521807E-1,7.887608348E-1
7.619496668E-1,1.036433739E0,-2.218679202E-1,-1.460061443E-1,1.069924326E0
7.719446667E-1,1.041423752E0,-2.213668138E-1,-9.123059750E-2,1.068592401E0
7.819386667E-1,5.787832792E-1,-6.170777178E-1,-1.184406155E-1,8.542851828E-1
7.919336667E-1,2.388679688E-1,-9.822205478E-1,-4.608208197E-1,1.110932464E0
8.019286667E-1,-3.599295987E-1,-9.697759187E-1,-9.377776158E-1,1.396224017E0
8.119226668E-1,-4.395410478E-1,-2.588655925E-1,-6.831717199E-1,8.526026780E-1
8.219176668E-1,9.933466297E-1,5.058490580E-1,-9.938547528E-1,1.493441685E0
8.319126668E-1,2.280405187E0,6.710826015E-1,-2.013844805E0,3.115472769E0
8.419066668E-1,2.343737988E0,2.441370410E-1,-2.300550746E0,3.293211865E0
8.519016667E-1,1.481330397E0,-2.463297468E-1,-2.004096327E0,2.504280372E0
8.618966667E-1,6.466872869E-1,-4.445199519E-1,-1.517959988E0,1.708802200E0
8.718906667E-1,2.973315006E-1,-2.125439501E-1,-1.285350732E0,1.336303654E0
8.818856666E-1,1.382670620E-1,-1.378943020E-1,-1.288904670E0,1.303613389E0
8.918806668E-1,-1.853600983E-1,-2.293459243E-1,-1.195296595E0,1.231134383E0
9.018746668E-1,-4.209363770E-1,-3.957664526E-1,-1.128410879E0,1.267726166E0
9.118696668E-1,-4.236483157E-1,-4.900083661E-1,-1.149901736E0,1.319795475E0
9.218646667E-1,-6.494566014E-1,-3.953676724E-1,-1.322187021E0,1.525217359E0
9.318586667E-1,-9.904662913E-1,-3.671133417E-1,-1.701680088E0,2.002875633E0
9.418536667E-1,-6.939727698E-1,-3.128757387E-1,-1.968680327E0,2.110732494E0
9.518486666E-1,-4.033931221E-1,-3.692779809E-1,-1.581778253E0,1.673653095E0
9.618426668E-1,-1.025040731E0,-1.405242042E0,-9.426460075E-1,1.978381963E0
9.718376668E-1,-2.485055543E0,-2.704460616E0,1.980826163E-1,3.678157826E0
9.818326668E-1,-3.499705333E0,-2.995474784E0,4.366823441E-1,4.627255998E0
9.918266668E-1,-4.442747782E0,-3.622678710E0,-3.337853819E-1,5.742231411E0
1.001821667E0,-4.426410661E0,-3.121617937E0,-1.009001380E-1,5.417360125E0
1.011816667E0,-2.868990739E0,-2.304764834E0,4.244961619E-1,3.704489950E0
1.021810667E0,-9.258525118E-1,-1.227499550E0,7.463467920E-1,1.709090856E0
1.031805667E0,6.737161875E-1,-3.942777514E-3,1.036167544E0,1.235941838E0
1.041800667E0,1.859682965E0,1.009547510E0,1.258585687E0,2.462040787E0
1.051794667E0,2.662024448E0,1.809735464E0,1.474869516E0,3.540728273E0
1.061789667E0,2.653963769E0,2.140265116E0,1.515699454E0,3.731166478E0
1.071784667E0,2.078987173E0,1.801616020E0,1.182459033E0,2.994364259E0
1.081778667E0,1.625801940E0,1.394970238E0,7.486003089E-1,2.269267797E0
1.091773667E0,1.449438221E0,6.637601334E-1,5.855723351E-1,1.698335548E0
1.101768667E0,1.727688503E0,5.482051188E-1,8.489741975E-1,2.001547802E0
1.111762667E0,1.969647456E0,7.531617218E-1,1.098165572E0,2.377547330E0
1.121757667E0,2.215384003E0,8.821676713E-1,1.256077816E0,2.695158170E0
1.131752667E0,2.486025303E0,9.776205432E-1,1.214433070E0,2.934435451E0
1.141747667E0,2.521151282E0,1.001308783E0,1.076280028E0,2.918424535E0
1.151741667E0,2.336195957E0,8.119934821E-1,8.106936461E-1,2.602761832E0
1.161736667E0,1.987879660E0,6.363828850E-1,5.633102310E-1,2.161935969E0
1.171731667E0,1.901736432E0,5.796531987E-1,4.669381768E-1,2.042212170E0
1.181725667E0,2.313457305E0,6.109527594E-1,7.802635664E-1,2.516775558E0
1.191720667E0,2.767480152E0,8.734424561E-1,1.553246180E0,3.291568290E0
1.201715667E0,2.788295655E0,1.083865036E0,2.239837936E0,3.737141963E0
1.211709667E0,2.798725333E0,1.108557243E0,2.578177130E0,3.963427805E0
1.221704667E0,2.744409085E0,1.166901346E0,2.549531620E0,3.923461668E0
1.231699667E0,2.765409653E0,1.013974437E0,2.347503303E0,3.766484629E0
1.241693667E0,3.035853024E0,8.602137154E-1,2.339300244E0,3.927937990E0
1.251688667E0,3.910612274E0,1.096138342E0,2.452276052E0,4.744266587E0
1.261683667E0,5.032130163E0,1.440308379E0,2.735628321E0,5.905970243E0
1.271677667E0,5.775183218E0,1.290172931E0,2.983575701E0,6.627142020E0
1.281672667E0,5.807165734E0,6.323927450E-1,3.015913142E0,6.574102716E0
1.291667667E0,5.227258181E0,-8.404729307E-2,2.473555824E0,5.783577651E0
1.301661667E0,5.667152401E0,-7.718476689E-1,1.422470863E0,5.893707535E0
1.311656667E0,6.019741259E0,-1.499566401E0,3.598560700E-1,6.214135548E0
1.321651667E0,5.376168053E0,-2.532785195E0,-8.172138762E-1,5.998835078E0
1.331645667E0,4.366644516E0,-3.796969006E0,-1.317120701E0,5.934590542E0
1.341640667E0,2.638927946E0,-4.860227285E0,-1.454008405E0,5.718381800E0
1.351635667E0,5.160439709E-1,-5.327709253E0,-1.679871728E0,5.610058492E0
1.361629667E0,-3.437253562E-1,-4.864862373E0,-1.790898659E0,5.195416348E0
1.371624667E0,-8.421858725E-1,-4.054925941E0,-2.044718689E0,4.618720163E0
1.381619667E0,-2.531857241E0,-3.825957747E0,-2.164401253E0,5.072759265E0
1.391613667E0,-5.430497457E0,-3.648618713E0,-2.281199970E0,6.928679127E0
1.401608667E0,-8.234506919E0,-3.281400706E0,-2.754931442E0,9.282474995E0
1.411603667E0,-9.224685527E0,-2.904633611E0,-2.950398014E0,1.011121001E1
1.421597667E0,-8.175651770E0,-2.820606784E0,-2.611940707E0,9.034342187E0
1.431592667E0,-6.408001056E0,-2.803698975E0,-2.021635051E0,7.280811339E0
1.441587667E0,-4.727892516E0,-2.592244361E0,-1.378166510E0,5.565253040E0
1.451581667E0,-3.488033414E0,-2.410062663E0,-9.603028446E-1,4.347063456E0
1.461576667E0,-2.597168301E0,-2.307883154E0,-1.031811368E0,3.624395472E0
1.471572042E0,-2.375751494E0,-2.216449074E0,-1.455167908E0,3.560106079E0
1.481566042E0,-2.567595131E0,-2.057801834E0,-2.105153171E0,3.906246666E0
1.491561042E0,-2.449161240E0,-1.771691140E0,-2.538023130E0,3.947004140E0
1.501556042E0,-2.589408461E0,-1.403707148E0,-2.612374570E0,3.936995153E0
1.511550042E0,-2.750543692E0,-1.468132939E0,-2.511189965E0,4.003371076E0
1.521545042E0,-2.708239086E0,-1.719428726E0,-2.245324963E0,3.915670860E0
1.531540042E0,-3.223958829E0,-1.895655035E0,-2.048797122E0,4.264386027E0
1.541534042E0,-3.688564259E0,-2.319808550E0,-1.984017574E0,4.787832885E0
1.551529042E0,-4.232077572E0,-3.028341399E0,-2.051816624E0,5.593861248E0
1.561524042E0,-3.820750509E0,-3.693362777E0,-2.131202517E0,5.725477030E0
1.571518042E0,-2.573811014E0,-4.022380339E0,-2.069161220E0,5.204370748E0
1.581513042E0,-2.241744713E0,-4.368779334E0,-2.016991484E0,5.308475005E0
1.591508042E0,-1.843523161E0,-4.339038641E0,-2.108516489E0,5.164462776E0
1.601502042E0,-1.472123664E0,-3.774892843E0,-1.998930020E0,4.518039983E0
1.611497042E0,-9.386754557E-2,-3.749617669E0,-1.693692207E0,4.115463166E0
1.621492042E0,2.154447538E0,-2.746946484E0,-9.527353781E-1,3.618710251E0
1.631486042E0,4.055897456E0,-5.518643063E-1,2.217848897E-3,4.093270490E0
1.641481042E0,5.187774857E0,1.261962454E0,9.080366305E-1,5.415725965E0
1.651476042E0,5.278286247E0,2.298480831E0,1.583002660E0,5.970696548E0
1.661471042E0,4.874129625E0,2.846850842E0,2.112908918E0,6.027112361E0
1.671465042E0,4.932644466E0,3.361700519E0,2.573823878E0,6.500506223E0
1.681460042E0,5.692049845E0,4.556640433E0,2.685631996E0,7.770136594E0
1.691454042E0,6.092526230E0,5.223037661E0,2.231027352E0,8.329254547E0
1.701449042E0,5.944889882E0,4.694210215E0,1.368950713E0,7.697489935E0
1.711444042E0,5.046027240E0,3.665320115E0,5.978675678E-1,6.265333837E0
1.721439042E0,3.734836785E0,2.552947564E0,-1.256566644E-3,4.523996977E0
1.731433042E0,2.822767330E0,1.243748378E0,-1.430497921E-1,3.087942465E0
1.741428042E0,2.144710754E0,6.347035646E-2,3.260471767E-1,2.170280965E0
1.751423042E0,1.330207939E0,-7.431618136E-1,1.067294904E0,1.860338963E0
1.761417042E0,4.190717000E-1,-1.388049474E0,1.552141933E0,2.124016716E0
1.771412042E0,-4.759358722E-1,-1.812435708E0,1.557676615E0,2.436759034E0
1.781407042E0,-6.419845176E-1,-1.857443481E0,1.233216373E0,2.320142890E0
1.791401042E0,-3.577551654E-1,-1.506072013E0,8.951087290E-1,1.788144654E0
1.801396042E0,-1.114140165E-1,-9.883221173E-1,6.784655884E-1,1.203955666E0
1.811391042E0,1.306475553E-1,-5.272972298E-1,6.600620618E-1,8.548643622E-1
1.821385042E0,4.112177199E-1,-1.703603822E-1,8.184447151E-1,9.316514502E-1
1.831380042E0,5.170827287E-1,1.120028311E-1,9.452965504E-1,1.083284243E0
1.841375042E0,6.444406405E-1,3.230341065E-1,9.254101700E-1,1.173046783E0
1.851369042E0,7.742882967E-1,4.890663797E-1,8.074870330E-1,1.220960113E0
1.861364042E0,7.551164460E-1,4.738513398E-1,5.663060519E-1,1.056143212E0
1.871359042E0,9.838340870E-1,5.278492069E-1,3.251221472E-1,1.162866590E0
1.881353042E0,1.131129250E0,5.843385726E-1,2.529335922E-1,1.298029410E0
1.891348042E0,9.042999673E-1,4.111376131E-1,2.193629730E-1,1.017306582E0
1.901343042E0,4.553624439E-1,1.166554606E-1,9.857411563E-2,4.802918988E-1
1.911337042E0,-7.762529612E-2,-2.269070506E-1,-8.154497713E-2,2.533023480E-1
1.921332042E0,-3.783266933E-1,-5.190532404E-1,-4.086896762E-1,7.612979737E-1
1.931327042E0,-1.152003810E-1,-4.702664119E-1,-7.072078693E-1,8.570674398E-1
1.941321042E0,4.080521835E-1,-2.021043313E-1,-6.696371698E-1,8.097942235E-1
1.951316042E0,8.412624510E-1,-4.460665405E-2,-3.035283798E-1,8.954561644E-1
1.961311042E0,9.013441998E-1,-1.200947928E-1,3.560182500E-1,9.765209266E-1
1.971305042E0,5.119332321E-1,-1.555031919E-1,9.230066720E-1,1.066863718E0
1.981300042E0,1.265776008E-1,-3.094106787E-1,1.039378250E0,1.091816836E0
1.991295042E0,-4.481423020E-2,-5.396944964E-1,6.821893877E-1,8.710113807E-1
2.001289042E0,6.181435190E-2,-4.335260171E-1,1.322985166E-1,4.574589808E-1
2.011284042E0,9.759295285E-2,-1.952437931E-1,-3.758514208E-1,4.346364155E-1
2.021279042E0,-3.468860686E-4,-1.373774081E-1,-8.496635842E-1,8.606979023E-1
2.031273042E0,-3.287428893E-2,-2.895400858E-1,-9.937784466E-1,1.035620481E0
2.041268042E0,-4.225620492E-1,-5.792637742E-1,-8.088728231E-1,1.080916486E0
2.051263042E0,-1.197091105E0,-9.544018346E-1,-7.630785996E-1,1.710613611E0
2.061257042E0,-1.511141988E0,-1.130927521E0,-7.442719075E-1,2.028912969E0
2.071252042E0,-1.523489261E0,-1.068072876E0,-7.927134579E-1,2.022422761E0
2.081247042E0,-1.638439235E0,-9.222134972E-1,-1.017069368E0,2.137613380E0
2.091241042E0,-1.713855307E0,-8.274716467E-1,-1.254794353E0,2.279587288E0
2.101236042E0,-2.274006287E0,-9.846161520E-1,-1.510943913E0,2.902330972E0
2.111231042E0,-3.187418409E0,-1.276080557E0,-1.952651939E0,3.949793323E0
2.121225042E0,-3.217488300E0,-1.647139599E0,-2.166746571E0,4.214272241E0
2.131220042E0,-2.431815767E0,-1.614699247E0,-1.786170015E0,3.422190075E0
2.141215042E0,-1.758139048E0,-1.178627937E0,-1.259201984E0,2.462885779E0
2.151209042E0,-1.465719793E0,-8.726238459E-1,-9.815899256E-1,1.968076643E0
2.161204042E0,-1.303234003E0,-7.063635314E-1,-9.412856528E-1,1.755957569E0
2.171199042E0,-7.889526750E-1,-3.242216760E-1,-7.032332245E-1,1.105487669E0
2.181193042E0,-1.970020509E-1,1.566118240E-1,-2.785098982E-1,3.753729277E-1
2.191188042E0,2.850086398E-1,4.298984045E-1,-9.873608351E-3,5.158876342E-1
2.201183042E0,6.670569398E-1,6.801428622E-1,1.396475896E-1,9.628399260E-1
2.211177042E0,1.078111230E0,8.764081639E-1,5.168222353E-1,1.482403561E0
2.221172042E0,1.267469362E0,9.166609812E-1,9.877093291E-1,1.849950177E0
2.231167042E0,1.151640405E0,7.634995991E-1,1.272846169E0,1.878655006E0
2.241161042E0,1.068090418E0,6.444216371E-1,1.380641052E0,1.860716556E0
2.251156042E0,1.113080503E0,5.131808817E-1,1.322875239E0,1.803413907E0
2.261151042E0,9.168641719E-1,3.578729868E-1,1.081107782E0,1.462021553E0
2.271145042E0,5.693840262E-1,2.446913570E-1,6.782106498E-1,9.187174294E-1
2.281140042E0,4.455240650E-1,1.268810713E-1,3.634281340E-1,5.887873193E-1
2.291135042E0,4.323842020E-1,1.701949060E-2,2.821620691E-1,5.165860959E-1
2.301129042E0,5.490709452E-1,-2.949920297E-3,4.836924961E-1,7.317417821E-1
2.311124042E0,6.964027995E-1,4.021130204E-3,8.142399824E-1,1.071438182E0
2.321119042E0,7.715541387E-1,4.784074903E-2,1.085623586E0,1.332727691E0
2.331113042E0,7.124465360E-1,7.890466690E-2,1.155253400E0,1.359564795E0
2.341108042E0,6.608359408E-1,8.533718884E-2,1.037443699E0,1.232994730E0
2.351103042E0,6.018582925E-1,1.070566714E-1,8.464148712E-1,1.044084608E0
2.361097042E0,5.286916445E-1,1.383486307E-1,5.905866149E-1,8.046413787E-1
2.371092042E0,4.749785368E-1,1.447349596E-1,3.422337314E-1,6.030561714E-1
2.381087042E0,3.835631673E-1,1.107187825E-1,1.636971876E-1,4.314813105E-1
2.391081042E0,2.048243098E-1,4.576615691E-3,5.177709460E-3,2.049408499E-1
2.401076042E0,5.051745817E-2,-5.794181406E-2,-9.743975580E-2,1.241119390E-1
2.411071042E0,-1.885975555E-2,-6.133495331E-2,-1.535396969E-1,1.664094511E-1
2.421065042E0,-4.661941186E-2,-5.759858251E-2,-1.607969686E-1,1.770497992E-1
2.431060042E0,6.238248199E-2,-3.321160018E-2,-9.054325730E-2,1.148593309E-1
2.441055042E0,2.201190180E-1,1.613831520E-2,1.034547865E-1,2.437534003E-1
2.451049042E0,2.655890134E-1,4.811381400E-2,2.554332769E-1,3.716162296E-1
2.461044042E0,2.296906176E-1,3.029383957E-2,3.573590165E-1,4.258884399E-1
2.471039042E0,1.834471817E-1,-4.225314975E-2,4.637125602E-1,5.004673173E-1
2.481032667E0,1.598120052E-1,-1.104772925E-1,5.159536314E-1,5.513195615E-1
2.491027667E0,1.740143073E-1,-9.785666227E-2,5.404566810E-1,5.761513078E-1
2.501022667E0,1.548133667E-1,-6.440240264E-2,5.249916726E-1,5.511180493E-1
2.511016667E0,1.323707297E-1,-8.676975667E-2,4.891377157E-1,5.141076791E-1
2.521011667E0,1.123837772E-1,-1.251502955E-1,4.453771538E-1,4.760814205E-1
2.531006667E0,1.222978775E-1,-2.151418680E-1,4.219172475E-1,4.891389965E-1
2.541000667E0,1.964225918E-1,-3.161595351E-1,4.130055061E-1,5.559786275E-1
2.550995667E0,2.871605614E-1,-4.070673662E-1,4.063920128E-1,6.428992898E-1
2.560990667E0,4.562946363E-1,-5.146467787E-1,4.697846013E-1,8.329247707E-1
2.570984667E0,6.061942953E-1,-5.581991798E-1,6.460208505E-1,1.047091585E0
2.580979667E0,5.405413194E-1,-5.625115013E-1,8.141838491E-1,1.127607843E0
2.590974667E0,4.477158938E-1,-7.483477092E-1,8.110626054E-1,1.190922485E0
2.600968667E0,5.134036607E-1,-1.325083147E0,6.783354878E-1,1.574664313E0
2.610963667E0,2.488746013E-1,-1.744603329E0,4.939642999E-1,1.830185802E0
2.620958667E0,-5.405429274E-2,-2.015856248E0,2.956054026E-1,2.038131701E0
2.630952667E0,-2.698645706E-1,-2.228255771E0,1.094382423E-1,2.247204352E0
2.640947667E0,-4.872070382E-1,-2.193788189E0,6.492426664E-2,2.248175366E0
2.650942667E0,-6.447794136E-1,-2.016829809E0,8.274979591E-3,2.117406774E0
2.660936667E0,-6.258021290E-1,-1.761730408E0,-7.058437139E-2,1.870910070E0
2.670931667E0,-3.675838964E-1,-1.459221198E0,-1.222942230E-1,1.509768294E0
2.680926667E0,2.806109490E-1,-1.020847839E0,-1.213399574E-1,1.065643562E0
2.690920667E0,1.075518721E0,-4.403754455E-1,9.802623153E-2,1.166310505E0
2.700915667E0,1.628198567E0,2.474424720E-2,4.646261877E-1,1.693375430E0
2.710910667E0,1.841223013E0,3.247812545E-1,7.190338629E-1,2.003146211E0
2.720904667E0,1.475705230E0,4.066352570E-1,7.715123311E-1,1.714143936E0
2.730899667E0,1.050137712E0,3.532092476E-1,4.714697689E-1,1.204088755E0
2.740894667E0,1.161670865E0,2.297528905E-1,1.000329959E-1,1.188390588E0
2.750889667E0,1.442417177E0,7.914498746E-2,-2.833116317E-1,1.472106220E0
2.760883667E0,1.488508439E0,1.181476700E-1,-5.285760158E-1,1.583985117E0
2.770878667E0,1.468792213E0,3.294064021E-1,-5.906746155E-1,1.617020607E0
2.780872667E0,1.675655593E0,4.559120822E-1,-3.578595382E-1,1.773059768E0
2.790867667E0,1.829067528E0,4.626667857E-1,1.882581246E-1,1.896045806E0
2.800862667E0,1.544546400E0,4.520172518E-1,5.992442948E-1,1.717276012E0
2.810857667E0,1.074057209E0,3.230358607E-1,6.943890184E-1,1.319138797E0
2.820851667E0,6.447442572E-1,-2.195337117E-2,6.242885041E-1,8.977267090E-1
2.830846667E0,6.376534849E-3,-5.241549361E-1,5.747883153E-1,7.779207316E-1
2.840840667E0,-7.514810128E-1,-1.088298395E0,7.743467689E-1,1.532556697E0
2.850835667E0,-1.496752575E0,-1.688047305E0,1.272255308E0,2.590058984E0
2.860830667E0,-2.216748159E0,-2.290233334E0,1.752814574E0,3.637512894E0
2.870825667E0,-2.595046932E0,-2.681741844E0,2.139763425E0,4.301696806E0
2.880819667E0,-2.781908741E0,-2.952623464E0,2.341418690E0,4.683934569E0
2.890814667E0,-2.838540194E0,-3.095345812E0,2.051513153E0,4.674096956E0
2.900808667E0,-2.777650506E0,-3.395619047E0,1.766731532E0,4.729366908E0
2.910803667E0,-3.110414964E0,-3.852887684E0,1.785474197E0,5.263776483E0
2.920798667E0,-3.980089475E0,-4.280067133E0,1.796266987E0,6.114463343E0
2.930793667E0,-5.334190307E0,-4.625145827E0,1.821328154E0,7.291282219E0
2.940787667E0,-6.474627739E0,-4.671251122E0,1.944819009E0,8.217281326E0
2.950782667E0,-6.340768016E0,-4.527540595E0,2.235070117E0,8.105522889E0
2.960777667E0,-5.097109101E0,-4.327836546E0,2.561368139E0,7.160397831E0
2.970771667E0,-3.205219672E0,-3.591432359E0,2.788690342E0,5.563147792E0
2.980766667E0,-1.342927972E0,-2.593044845E0,2.796318619E0,4.043109562E0
2.990761667E0,-1.346099210E-1,-2.187562659E0,2.357466958E0,3.218881898E0
3.000755667E0,6.586755408E-1,-1.681301372E0,1.632430344E0,2.434226078E0
3.010750667E0,1.463939901E0,-8.814829624E-1,1.003085752E0,1.981492688E0
3.020745667E0,1.870188365E0,-2.689257270E-1,4.516523856E-1,1.942656800E0
3.030739667E0,2.386525573E0,6.684531087E-1,-1.245749295E-1,2.481502123E0
3.040734667E0,3.424980256E0,1.859725649E0,-6.862099332E-1,3.957265889E0
3.050729667E0,4.762929617E0,2.933187320E0,-9.661056215E-1,5.676481873E0
3.060723667E0,5.953714499E0,3.764860191E0,-1.011540826E0,7.116467062E0
3.070718667E0,6.613559337E0,4.325992334E0,-8.648938268E-1,7.949931956E0
3.080713667E0,6.777067952E0,4.738109940E0,-7.470350093E-1,8.302794538E0
3.090707667E0,6.887828250E0,5.070284999E0,-7.806722867E-1,8.588330291E0
3.100702667E0,7.144435648E0,5.288002566E0,-9.371630734E-1,8.937796512E0
3.110697667E0,7.262480407E0,5.386412374E0,-1.149106514E0,9.114686265E0
3.120691667E0,6.970043026E0,5.230245523E0,-1.339909932E0,8.816593823E0
3.130686667E0,6.393411083E0,4.729686441E0,-1.385799465E0,8.072550977E0
3.140681667E0,5.425971712E0,3.869168086E0,-1.290424361E0,6.787991288E0
3.150675667E0,3.326185700E0,2.805962432E0,-1.728544536E0,4.682392839E0
3.160670667E0,1.692734433E0,2.419674316E0,-2.579075847E0,3.920689465E0
3.170665667E0,1.638403859E0,2.349126490E0,-2.996118563E0,4.144814702E0
3.180659667E0,2.088601750E0,2.446371533E0,-2.932548804E0,4.352796048E0
3.190654667E0,2.332640558E0,2.402349601E0,-2.700004452E0,4.301455523E0
3.200649667E0,2.263643998E0,1.865887445E0,-2.360199947E0,3.765124685E0
3.210643667E0,1.821105375E0,1.271967625E0,-1.850344961E0,2.891038378E0
3.220638667E0,1.162221088E0,7.413474226E-1,-1.335861905E0,1.919604357E0
3.230633667E0,4.411975640E-1,1.194872671E-1,-1.189239464E0,1.274057691E0
3.240627667E0,-2.297382359E-1,-4.177882361E-1,-1.521219810E0,1.594188313E0
3.250622667E0,-7.543799161E-1,-6.640560025E-1,-1.987985494E0,2.227587430E0
3.260617667E0,-1.471086368E0,-9.546737301E-1,-2.520241163E0,3.070360329E0
3.270611667E0,-2.261551133E0,-1.421702539E0,-2.915036393E0,3.953895397E0
3.280606667E0,-2.834652380E0,-1.775719872E0,-2.617962170E0,4.247606514E0
3.290601667E0,-3.308087691E0,-1.926009686E0,-1.953787469E0,4.297702055E0
3.300595667E0,-3.609993468E0,-1.856473428E0,-1.046363919E0,4.192066779E0
3.310590667E0,-3.876302859E0,-1.729571307E0,1.517796850E-1,4.247373050E0
3.320585667E0,-3.973069015E0,-1.880894909E0,9.004115689E-1,4.487068536E0
3.330579667E0,-3.927851035E0,-2.033717152E0,1.138107902E0,4.567199230E0
3.340574667E0,-4.029168664E0,-1.965684214E0,1.175862204E0,4.634734779E0
3.350569667E0,-3.968052396E0,-1.837892146E0,1.025963568E0,4.491757852E0
3.360563667E0,-3.478604778E0,-1.733656172E0,9.385552955E-1,3.998392298E0
3.370558667E0,-2.518922031E0,-1.507451956E0,1.113753079E0,3.139717427E0
3.380553667E0,-1.141042619E0,-1.091009164E0,8.411763507E-1,1.788814386E0
3.390547667E0,3.714744875E-1,-2.412859386E-1,8.893989229E-1,9.936008470E-1
3.400542667E0,1.829155236E0,6.340358126E-1,1.582886301E0,2.500667777E0
3.410537667E0,2.568645583E0,1.322913246E0,2.214694909E0,3.640455072E0
3.420531667E0,2.600773695E0,1.664668382E0,2.454507934E0,3.944585381E0
3.430526667E0,2.305043600E0,1.907614930E0,2.607066468E0,3.968503029E0
3.440521667E0,2.148128890E0,2.357761658E0,2.739103614E0,4.204305695E0
3.450515667E0,2.355889964E0,2.830254689E0,2.843982198E0,4.652826439E0
3.460510667E0,2.380264667E0,3.215184497E0,3.089890945E0,5.054749973E0
3.470505667E0,2.574631963E0,3.141567467E0,2.647483592E0,4.848437405E0
3.480499917E0,2.401885917E0,3.078930924E0,1.786109789E0,4.294072632E0
3.490494917E0,2.237850321E0,2.883761975E0,1.042401845E0,3.796137352E0
3.500489917E0,2.042357291E0,2.677150610E0,5.043796527E-1,3.404813875E0
3.510483917E0,1.557112066E0,2.195987912E0,-2.238559735E-1,2.701309385E0
3.520478917E0,8.507009534E-1,2.069877504E0,-1.145937324E0,2.514211077E0
3.530473917E0,2.507372318E-1,1.478512332E0,-2.374747235E0,2.808610386E0
3.540467917E0,-1.648132749E-1,4.487340403E-1,-3.702897831E0,3.733627995E0
3.550462917E0,-6.184278399E-1,-4.458063394E-1,-4.441124010E0,4.506082418E0
3.560457917E0,-1.232413550E0,-1.305434164E0,-4.647668717E0,4.982351455E0
3.570451917E0,-1.839950074E0,-2.190481004E0,-4.581439059E0,5.401222747E0
3.580446917E0,-2.539153689E0,-2.843773452E0,-3.908139778E0,5.459661659E0
3.590441917E0,-2.984971431E0,-3.544165222E0,-2.880456544E0,5.456023412E0
3.600435917E0,-3.311063631E0,-4.237381874E0,-2.023516100E0,5.745708392E0
3.610430917E0,-3.410126574E0,-4.815234130E0,-1.465947835E0,6.079839310E0
3.620425917E0,-3.271586447E0,-5.265799518E0,-8.840650928E-1,6.262067832E0
3.630419917E0,-3.253415347E0,-5.404680830E0,-2.152126193E-1,6.312020498E0
3.640414917E0,-3.152647649E0,-5.690328425E0,6.331160456E-1,6.536043199E0
3.650409917E0,-3.078646165E0,-5.777892818E0,1.707841884E0,6.766005581E0
3.660403917E0,-2.946080430E0,-5.162516640E0,2.624947253E0,6.497793167E0
3.670398917E0,-2.261744968E0,-4.401020882E0,2.896672043E0,5.733688518E0
3.680393917E0,-1.078384733E0,-3.599478713E0,2.205217157E0,4.356850163E0
3.690387917E0,7.306369315E-1,-2.502831078E0,9.777304709E-1,2.784591641E0
3.700382917E0,2.757805933E0,-8.614919168E-1,-1.055609536E-1,2.891159803E0
3.710377917E0,4.472347557E0,1.031197996E0,-9.350434577E-1,4.683969283E0
3.720371917E0,5.663599048E0,2.906366141E0,-1.715801114E0,6.592972909E0
3.730366917E0,6.542184130E0,4.334230476E0,-2.556785091E0,8.253658402E0
3.740361917E0,7.010646676E0,5.113607605E0,-3.031821662E0,9.191849223E0
3.750355917E0,6.964812691E0,5.527112170E0,-2.887295448E0,9.348479008E0
3.760350917E0,6.436498046E0,5.694479363E0,-2.325529466E0,8.903015759E0
3.770345917E0,5.736847703E0,5.432107195E0,-1.727528290E0,8.087247006E0
3.780339917E0,4.751363532E0,4.753219730E0,-1.448271117E0,6.875030359E0
3.790334917E0,3.664477824E0,3.859230158E0,-1.381935625E0,5.498345315E0
3.800329917E0,2.522147063E0,2.998052822E0,-1.556639319E0,4.215764758E0
3.810323917E0,1.406982758E0,2.167566935E0,-2.034641013E0,3.289028877E0
3.820318917E0,4.650182800E-1,1.251187790E0,-2.540308807E0,2.869648362E0
3.830313917E0,-2.558534176E-1,2.854470348E-1,-2.875907995E0,2.901342410E0
3.840307917E0,-1.083912106E0,-6.107235485E-1,-2.980833356E0,3.230048948E0
3.850302917E0,-1.934045807E0,-1.388144199E0,-2.894927233E0,3.748076998E0
3.860297917E0,-2.647908977E0,-2.199889759E0,-2.672837119E0,4.358324812E0
3.870291917E0,-3.272499782E0,-2.850362095E0,-2.438448556E0,4.977936345E0
3.880286917E0,-3.686582053E0,-3.235269683E0,-2.152535498E0,5.356422895E0
3.890281917E0,-3.882888870E0,-3.446417903E0,-1.726054206E0,5.471186842E0
3.900275917E0,-4.019281899E0,-3.632107345E0,-1.173895200E0,5.543001055E0
3.910270917E0,-4.224426198E0,-3.791704173E0,-5.613981915E-1,5.704205919E0
3.920265917E0,-4.356164259E0,-3.780431911E0,8.419815123E-2,5.768441888E0
3.930259917E0,-4.024774774E0,-3.566987489E0,8.057638586E-1,5.437965348E0
3.940254917E0,-3.234534980E0,-3.127770377E0,1.620214341E0,4.782285916E0
3.950249917E0,-2.471789380E0,-2.462307535E0,2.487280408E0,4.284771285E0
3.960243917E0,-1.756535303E0,-1.891825694E0,3.052140151E0,3.997496745E0
3.970238917E0,-1.036630790E0,-1.395080751E0,3.194779469E0,3.636958832E0
3.980233917E0,-3.379983739E-1,-8.315401393E-1,2.982828426E0,3.114958639E0
3.990227917E0,6.588368509E-1,-1.905502331E-1,2.397868295E0,2.494022403E0
4.000222917E0,2.057845542E0,7.083954388E-1,1.635841609E0,2.722596213E0
4.010217917E0,3.199744924E0,1.661923115E0,9.006033576E-1,3.716374904E0
4.020211917E0,3.837769415E0,2.252709412E0,1.848603076E-1,4.453913685E0
4.030206917E0,3.893736332E0,2.502015976E0,-4.634491432E-1,4.651456941E0
4.040201917E0,3.536282591E0,2.480911621E0,-8.693681163E-1,4.406361078E0
4.050195917E0,2.969449705E0,2.187073832E0,-1.271474705E0,3.900970574E0
4.060190917E0,2.146292134E0,1.791657043E0,-1.441429875E0,3.145524593E0
4.070185917E0,1.297797993E0,1.417140541E0,-1.163522240E0,2.246408455E0
4.080179917E0,5.598608123E-1,7.463005990E-1,-1.094156136E0,1.437910415E0
4.090174917E0,-8.548793737E-2,1.504032505E-1,-1.091257086E0,1.104885222E0
4.100169917E0,-6.630426069E-1,-1.958214980E-1,-1.027334740E0,1.238300539E0
4.110163917E0,-1.190540177E0,-4.262959349E-1,-1.133720736E0,1.698362989E0
4.120158917E0,-1.583944647E0,-6.577193749E-1,-1.278700109E0,2.139287122E0
4.130153917E0,-1.800658977E0,-8.735792810E-1,-1.312753124E0,2.393498334E0
4.140147917E0,-1.896927097E0,-1.001293581E0,-1.304084626E0,2.510290413E0
4.150142917E0,-1.907188961E0,-1.031999649E0,-1.208638186E0,2.482579157E0
4.160137917E0,-1.751041552E0,-9.647093064E-1,-9.696981508E-1,2.221964236E0
4.170131917E0,-1.555656987E0,-8.888019222E-1,-6.630356634E-1,1.910406713E0
4.180126917E0,-1.374088954E0,-7.668664259E-1,-5.290133876E-1,1.660138468E0
4.190121917E0,-1.077455465E0,-6.232237262E-1,-4.523213071E-1,1.324353675E0
4.200115917E0,-7.674584565E-1,-3.899110508E-1,-2.022779936E-1,8.842734286E-1
4.210110917E0,-3.763518693E-1,-2.749694091E-1,-9.908691645E-3,4.662049846E-1
4.220105917E0,-2.425333690E-3,-1.427445674E-1,2.798079801E-1,3.141248151E-1
4.230099917E0,2.080974349E-1,4.045805454E-2,6.406659704E-1,6.748290764E-1
4.240094917E0,4.373650796E-1,2.266088426E-2,8.765034735E-1,9.798265498E-1
4.250089917E0,6.418752477E-1,-3.610070944E-2,1.103281301E0,1.276924713E0
4.260083917E0,5.523401235E-1,-1.186511153E-1,1.128609685E0,1.262108363E0
4.270078917E0,3.847141917E-1,-1.888668197E-1,9.405059266E-1,1.033550716E0
4.280073917E0,3.314168941E-1,-2.026644945E-1,7.229509127E-1,8.207119332E-1
4.290067917E0,4.564500260E-1,-1.134073323E-1,4.722456944E-1,6.665011967E-1
4.300062917E0,6.530179942E-1,1.194831741E-1,4.069445747E-1,7.786607840E-1
4.310057917E0,7.917267403E-1,1.805456471E-1,3.993022639E-1,9.049145042E-1
4.320051917E0,7.837628326E-1,1.221138364E-1,3.768951488E-1,8.782060806E-1
4.330046917E0,6.769762295E-1,8.601312697E-2,3.107806814E-1,7.498531224E-1
4.340041917E0,5.314352677E-1,8.705393136E-2,2.470998251E-1,5.925032948E-1
4.350035917E0,4.148043654E-1,5.535559058E-2,5.473461628E-2,4.220459468E-1
4.360030917E0,3.825635127E-1,1.087359917E-1,-2.683895373E-1,4.798033982E-1
4.370025917E0,3.032389792E-1,1.948163617E-1,-5.078663474E-1,6.227644178E-1
4.380019917E0,2.302419004E-1,2.373566097E-1,-5.501569194E-1,6.418894989E-1
4.390014917E0,1.680718916E-1,2.398720819E-1,-4.595391101E-1,5.449430889E-1
4.400009917E0,1.028487957E-1,1.660316885E-1,-3.053310764E-1,3.624520141E-1
4.410003917E0,2.878185924E-2,3.311102808E-2,-2.509987485E-1,2.548040568E-1
4.419998917E0,1.270392020E-1,-4.391258955E-3,-2.192986536E-1,2.534761162E-1
4.429993917E0,2.277211658E-1,4.365180373E-2,-6.694944978E-2,2.413392594E-1
4.439987917E0,2.847531896E-1,7.957358837E-2,1.302952605E-1,3.230993499E-1
4.449982917E0,2.904082511E-1,1.863507628E-2,2.875602186E-1,4.091150177E-1
4.459977917E0,1.907410351E-1,-3.558849335E-2,4.944329542E-1,5.311427581E-1
4.469971917E0,4.828294471E-2,-1.398624748E-1,5.791158396E-1,5.977189225E-1
4.479966583E0,-2.969267271E-2,-1.959974992E-1,5.498458475E-1,5.844887771E-1
4.489961583E0,-1.782037642E-2,-2.759254289E-1,5.219201303E-1,5.906378167E-1
4.499955583E0,1.594170257E-2,-3.574975955E-1,4.985681051E-1,6.137009240E-1
4.509950583E0,-4.099738710E-3,-3.563065177E-1,4.779157394E-1,5.961330358E-1
4.519945583E0,-6.619552441E-2,-3.625723940E-1,4.723222929E-1,5.991067824E-1
4.529939584E0,-1.854234675E-1,-3.172705060E-1,4.393615383E-1,5.727835522E-1
4.539934583E0,-1.691826068E-1,-2.428547466E-1,4.379009038E-1,5.285436443E-1
4.549929583E0,-3.494690761E-2,-1.594839764E-1,5.215424001E-1,5.465005949E-1
4.559923583E0,1.725901083E-1,-9.691759944E-2,6.149060619E-1,6.459797454E-1
4.569918583E0,3.443541146E-1,-7.634475589E-2,6.705621994E-1,7.576687543E-1
4.579913583E0,3.674425399E-1,-5.992460489E-2,6.857614517E-1,7.803036249E-1
4.589907583E0,3.077990765E-1,-4.385411739E-2,6.493677968E-1,7.199597146E-1
4.599902584E0,2.487536735E-1,-3.212167919E-2,6.070859957E-1,6.568588878E-1
4.609897583E0,2.232068229E-1,-1.506008863E-2,6.131969208E-1,6.527316108E-1
4.619891583E0,2.082721571E-1,1.861051798E-2,6.438719988E-1,6.769747363E-1
4.629886583E0,2.510618985E-1,6.738565207E-2,6.564464360E-1,7.060416605E-1
4.639881583E0,3.015572834E-1,9.152822077E-2,6.136202592E-1,6.898144916E-1
4.649875583E0,3.279860038E-1,9.885361254E-2,5.275825739E-1,6.290391305E-1
4.659870583E0,3.825308779E-1,1.025800431E-1,4.712241858E-1,6.155524113E-1
4.669865583E0,3.961313919E-1,1.722542953E-1,4.210480589E-1,6.032189402E-1
4.679859583E0,3.906388099E-1,2.138174736E-1,3.752485728E-1,5.823470471E-1
4.689854583E0,3.563957974E-1,1.756848568E-1,3.628700173E-1,5.381057357E-1
4.699849583E0,3.049850674E-1,1.587045425E-1,3.974177063E-1,5.254939166E-1
4.709843583E0,2.633255197E-1,1.349929136E-1,4.328307831E-1,5.243146983E-1
4.719838583E0,2.130216311E-1,7.591732442E-2,4.109025550E-1,4.690229900E-1
4.729833583E0,2.141011732E-1,2.375782192E-2,3.680085504E-1,4.264200273E-1
4.739827583E0,2.109161949E-1,-1.747031093E-2,3.106380093E-1,3.758813987E-1
4.749822584E0,1.664336480E-1,-2.065411985E-2,2.775100243E-1,3.242507755E-1
4.759817583E0,1.279821020E-1,-2.716499448E-2,3.353997982E-1,3.600144163E-1
4.769811583E0,1.194729780E-1,-5.549183071E-2,4.019703484E-1,4.230050788E-1
4.779806583E0,8.744266156E-2,-8.174056649E-2,4.048372382E-1,4.221622066E-1
4.789801583E0,4.831528712E-2,-9.258773625E-2,3.745907611E-1,3.888767082E-1
4.799795583E0,4.155930452E-2,-1.079542190E-1,3.238059390E-1,3.438481864E-1
4.809790583E0,6.110311121E-2,-9.862966418E-2,2.830099154E-1,3.058692744E-1
4.819785583E0,4.362326201E-2,-4.264491320E-2,2.688274938E-1,2.756624730E-1
4.829779583E0,5.988813289E-2,-3.205969870E-2,2.338628983E-1,2.435287826E-1
4.839774583E0,5.239258714E-2,-4.526914358E-2,2.002852625E-1,2.119161742E-1
4.849769583E0,1.557968684E-2,-3.811799884E-2,1.655633265E-1,1.706075132E-1
4.859763583E0,-2.520321708E-2,-9.982951283E-3,1.341269410E-1,1.368389483E-1
4.869758583E0,-1.912741184E-2,-2.678024769E-3,9.004653633E-2,9.209456230E-2
4.879753583E0,-1.791342024E-2,1.913267434E-2,5.665074885E-2,6.242000638E-2
4.889747583E0,1.529083438E-3,2.522781193E-2,4.245137036E-2,4.940545958E-2
4.899742584E0,2.023893099E-2,8.931621909E-3,4.896575332E-2,5.373111943E-2
4.909737583E0,2.516232312E-2,-4.325770140E-3,1.161572778E-1,1.189300970E-1
4.919731583E0,1.365533162E-2,-1.262706220E-2,1.774378520E-1,1.784099272E-1
4.929726583E0,-1.072291642E-2,-2.892617583E-2,1.643570459E-1,1.672272200E-1
4.939721583E0,-2.092488248E-2,-1.072847128E-2,7.371233940E-2,7.737221583E-2
4.949715583E0,-3.182354428E-2,2.436534762E-3,-3.771804929E-2,4.940977549E-2
4.959710583E0,-1.090739608E-2,-1.160204530E-2,-1.069256938E-1,1.081049616E-1
4.969705583E0,-7.258477695E-3,-1.732003748E-2,-1.417289060E-1,1.429676607E-1
4.979699583E0,-4.176728267E-2,-1.649382591E-2,-1.220793378E-1,1.300765810E-1
4.989694583E0,-9.175903961E-2,-2.290003538E-2,-1.060591364E-1,1.421009267E-1
4.999689583E0,-1.376040608E-1,-2.534066319E-2,-1.297070307E-1,1.907903052E-1
5.009683583E0,-1.328813379E-1,-1.539221048E-2,-2.031024510E-1,2.431974006E-1
5.019678583E0,-1.033313737E-1,-5.370082855E-3,-2.914918864E-1,3.093117043E-1
5.029672583E0,-1.092580019E-1,8.284335136E-3,-3.426006442E-1,3.596959030E-1
5.039667583E0,-1.350376265E-1,5.357979119E-2,-3.619783169E-1,3.900439161E-1
5.049662584E0,-1.443703857E-1,7.233648956E-2,-3.425275540E-1,3.786825864E-1
5.059657583E0,-1.565640230E-1,7.151612520E-2,-3.256174064E-1,3.683117495E-1
5.069651583E0,-1.690721675E-1,9.540141642E-2,-3.226183695E-1,3.765228285E-1
5.079646583E0,-1.307287220E-1,1.023075628E-1,-3.063946849E-1,3.484745889E-1
5.089640583E0,-6.405209960E-2,1.019269091E-1,-2.907025123E-1,3.146422046E-1
5.099635583E0,-5.638806269E-2,8.935305655E-2,-2.933676732E-1,3.118143261E-1
5.109630583E0,-8.644339068E-2,8.140435159E-2,-3.132072759E-1,3.349595885E-1
5.119625583E0,-1.005593915E-1,3.254911065E-2,-3.464410955E-1,3.622058371E-1
5.129619583E0,-1.058069752E-1,-8.630490303E-3,-3.284813726E-1,3.452095212E-1
5.139614583E0,-1.302243082E-1,1.477708340E-2,-2.812235910E-1,3.102635022E-1
5.149608583E0,-1.185580715E-1,3.317066967E-2,-2.261024737E-1,2.574463794E-1
5.159603583E0,-1.002521569E-1,-4.225198030E-3,-1.870360565E-1,2.122518167E-1
5.169598583E0,-9.440333325E-2,-2.529973269E-2,-1.770104206E-1,2.021997893E-1
5.179592583E0,-8.653277999E-2,-2.478166938E-2,-1.641833836E-1,1.872384485E-1
5.189587583E0,-8.419091530E-2,-5.896332264E-3,-1.324634081E-1,1.570650548E-1
5.199582584E0,-9.946453694E-2,5.488722861E-2,-1.005826342E-1,1.517322256E-1
5.209576583E0,-8.703907577E-2,6.300842643E-2,-9.730702400E-2,1.449638556E-1
5.219571583E0,-9.030909458E-2,1.862162769E-2,-1.108082449E-1,1.441560430E-1
5.229566583E0,-9.539551439E-2,1.427305341E-3,-1.062602806E-1,1.428061224E-1
5.239560583E0,-9.841591191E-2,-5.795175433E-3,-8.861338377E-2,1.325579404E-1
5.249555583E0,-7.797751777E-2,-1.288784802E-2,-8.739833236E-2,1.178348777E-1
5.259550583E0,-5.372723239E-2,1.556645751E-2,-5.631336451E-2,7.937332752E-2
5.269544584E0,-4.343366604E-2,1.997116506E-2,-3.742101073E-2,6.070966006E-2
5.279539583E0,-2.951595889E-2,-3.406938672E-2,-5.142392278E-2,6.838373180E-2
5.289534583E0,-2.448430192E-2,-4.539251983E-2,-6.488421321E-2,8.288499877E-2
5.299528583E0,-5.125513924E-2,-2.536580622E-2,-9.005823076E-2,1.066817620E-1
5.309523583E0,-7.032329321E-2,-8.966120481E-3,-1.352168620E-1,1.526740209E-1
5.319518583E0,-7.707920272E-2,-2.142068982E-2,-1.179816091E-1,1.425472186E-1
5.329512583E0,-6.817597635E-2,-4.621639252E-2,-4.634737015E-2,9.450924509E-2
5.339507583E0,-5.793044854E-2,-7.718149245E-2,1.857718885E-2,9.827528474E-2
5.349502583E0,-8.556058902E-2,-1.127705705E-1,4.487738013E-2,1.484984687E-1
5.359496583E0,-1.121870732E-1,-1.220202810E-1,4.501888275E-2,1.717602636E-1
5.369491583E0,-1.463388874E-1,-9.453485906E-2,2.970093191E-2,1.767315900E-1
5.379486583E0,-1.353631154E-1,-5.829732478E-2,1.432100058E-2,1.480771493E-1
5.389480583E0,-5.728922825E-2,-1.435023665E-2,1.022268713E-2,5.993736979E-2
5.399475583E0,1.591703463E-3,8.843328953E-3,1.533256888E-2,1.777148433E-2
5.409470583E0,3.437970942E-2,-7.334747314E-3,7.279198766E-3,3.589915978E-2
5.419464584E0,1.861249141E-2,-3.321101546E-2,1.012971640E-2,3.939552689E-2
5.429459583E0,-2.289082602E-2,-4.234436631E-2,2.393616199E-2,5.375848887E-2
5.439454583E0,-5.224856291E-2,-3.816068351E-2,4.178654194E-2,7.702119955E-2
5.449448583E0,-7.209631518E-2,-9.578908682E-3,5.798683763E-2,9.301670544E-2
5.459443583E0,-7.413293693E-2,4.160293937E-3,3.334316254E-2,8.139267087E-2
5.469438583E0,-5.324383210E-2,3.367996216E-3,2.966643333E-2,6.104380659E-2
5.479432792E0,-4.501851730E-2,5.144380331E-3,1.834622383E-2,4.888471620E-2
5.489427792E0,-2.633050544E-2,-8.687793016E-3,9.323970079E-3,2.925251583E-2
5.499422792E0,-1.762105945E-2,-1.671075761E-2,-1.164356053E-2,2.693183355E-2
5.509416792E0,4.741945714E-3,-1.341000438E-2,-3.870856762E-4,1.422898808E-2
5.519411792E0,3.617019994E-2,2.656448543E-2,-8.907063603E-3,4.575249755E-2
5.529406792E0,2.977040414E-2,6.636589766E-2,-3.147497714E-2,7.925517977E-2
5.539400792E0,1.913642021E-2,6.100224674E-2,-5.541932523E-2,8.460956385E-2
5.549395792E0,2.015557162E-2,3.313734055E-2,-6.089114964E-2,7.219461552E-2
5.559390792E0,7.438060306E-3,1.853275001E-2,-2.829350710E-2,3.463105699E-2
5.569384792E0,1.779600084E-2,9.921555519E-3,2.238548040E-2,3.026953324E-2
5.579379792E0,2.006026201E-2,3.351039290E-3,2.265152872E-2,3.044232792E-2
5.589374792E0,1.549566966E-2,1.211543083E-3,1.128863454E-2,1.920981219E-2
5.599368792E0,1.200466264E-2,-1.143130660E-2,-2.284507155E-3,1.673336991E-2
5.609363792E0,1.951214036E-2,-6.491578817E-3,-3.762917161E-2,4.288145022E-2
5.619358792E0,2.302536679E-2,2.602010965E-3,-5.046673357E-2,5.553223546E-2
5.629352792E0,1.941920618E-2,-4.184501410E-2,-4.522821307E-2,6.460419515E-2
5.639347792E0,4.890081268E-3,-6.642787814E-2,-5.507317007E-2,8.642702095E-2
5.649342792E0,-3.106059227E-2,-7.202775657E-2,-8.015772521E-2,1.121517678E-1
5.659336792E0,-9.928528324E-2,-1.229166591E-1,-7.520454884E-2,1.749908475E-1
5.669331792E0,-2.393158655E-1,-1.820518899E-1,-9.668955803E-2,3.158541510E-1
5.679326792E0,-3.952687814E-1,-2.561074609E-1,-1.002236152E-1,4.815321527E-1
5.689320792E0,-6.478933483E-1,-4.708984959E-1,-1.774220645E-2,8.011404184E-1
5.699315792E0,-9.789724195E-1,-7.054268074E-1,4.705195963E-2,1.207571060E0
5.709310792E0,-1.313893915E0,-9.084017891E-1,1.379065812E-2,1.597404524E0
5.719304792E0,-1.726379750E0,-1.122696980E0,-1.440701312E-1,2.064362312E0
5.729299792E0,-2.121802679E0,-1.381548539E0,-2.937050575E-1,2.548918523E0
5.739294792E0,-2.925686219E0,-2.010608956E0,-3.860898954E-1,3.570889754E0
5.749288792E0,-3.960795709E0,-2.705864532E0,-5.599457431E-1,4.829404182E0
5.759283792E0,-4.848249556E0,-3.308803682E0,-5.944881696E-1,5.899756075E0
5.769278792E0,-5.861481689E0,-3.940160885E0,-6.706721270E-1,7.094479297E0
5.779272792E0,-6.469100366E0,-4.329329925E0,-7.101279688E-1,7.816433898E0
5.789267792E0,-6.606334518E0,-4.672293096E0,-7.530149567E-1,8.126562007E0
5.799262792E0,-6.185151973E0,-4.806411266E0,-7.389734530E-1,7.867895268E0
5.809256792E0,-5.066126459E0,-4.737742150E0,-4.590111065E-1,6.951440799E0
5.819251792E0,-3.734897304E0,-4.636184785E0,-1.015076637E-1,5.954323726E0
5.829246792E0,-1.763440719E0,-3.827540588E0,5.032511401E-1,4.244178582E0
5.839240792E0,-4.046273232E-2,-2.376769202E0,1.553387682E0,2.839662368E0
5.849235792E0,1.705858508E0,-1.374588014E0,2.556332517E0,3.366642451E0
5.859230792E0,2.651519048E0,-8.169209307E-1,3.002144119E0,4.087882383E0
5.869224792E0,2.815353060E0,-3.228686303E-1,2.882276198E0,4.042025864E0
5.879219792E0,3.155470100E0,1.456535572E-1,2.576338180E0,4.076239067E0
5.889214792E0,3.662045090E0,5.433542687E-1,1.969529927E0,4.193430128E0
5.899208792E0,4.073013133E0,9.840828860E-1,1.276317369E0,4.380278660E0
5.909203792E0,4.786353562E0,1.367906985E0,7.923398209E-1,5.040649992E0
5.919198792E0,5.800775896E0,2.173684877E0,5.146228051E-1,6.216007044E0
5.929192792E0,6.798795036E0,2.966296594E0,4.194663870E-1,7.429568054E0
5.939187792E0,7.384759719E0,3.384678907E0,4.363098764E-1,8.135176318E0
5.949182792E0,7.521821963E0,3.418913185E0,4.729491144E-1,8.275895956E0
5.959176792E0,8.010864369E0,3.551684741E0,5.632891810E-1,8.780985545E0
5.969171792E0,9.009088746E0,3.844431440E0,5.541838968E-1,9.810731518E0
5.979166792E0,9.632673245E0,3.844457753E0,5.263751239E-1,1.038486014E1
5.989160792E0,9.758711148E0,3.511540682E0,6.115392351E-1,1.038928975E1
5.999155792E0,9.148226166E0,2.997845246E0,5.648340154E-1,9.643451434E0
6.009150792E0,8.650598878E0,2.457329215E0,2.768931431E-1,8.997110515E0
6.019144792E0,8.317363134E0,1.984648488E0,-1.205426896E-1,8.551718521E0
6.029139792E0,7.827913762E0,1.550130199E0,-6.292294014E-1,8.004690321E0
6.039134792E0,7.631732660E0,1.010700581E0,-1.227239349E0,7.795574095E0
6.049128792E0,6.902413545E0,1.558487624E-1,-1.546379794E0,7.075230883E0
6.059123792E0,5.533535337E0,-8.609077799E-1,-1.606123136E0,5.825873931E0
6.069118792E0,4.221444995E0,-1.796218455E0,-1.700022987E0,4.892553193E0
6.079112792E0,3.309823144E0,-2.523566474E0,-1.634309639E0,4.471496952E0
6.089107792E0,2.276814266E0,-3.341527040E0,-1.205688266E0,4.219404029E0
6.099102792E0,1.125139581E0,-3.996143298E0,-6.720099699E-1,4.205555579E0
6.109096792E0,9.122292303E-2,-4.369196241E0,-1.664696449E-1,4.373317912E0
6.119091792E0,-6.587002453E-1,-4.590457220E0,2.515998423E-1,4.644296070E0
6.129086792E0,-1.174637212E0,-4.717754613E0,3.559416515E-1,4.874800060E0
6.139080792E0,-1.686024753E0,-4.874982734E0,2.497088528E-1,5.164348036E0
6.149075792E0,-2.259249230E0,-4.993543802E0,1.744920248E-1,5.483624190E0
6.159070792E0,-2.857623752E0,-5.018365232E0,1.995923674E-1,5.778394260E0
6.169064792E0,-3.472223420E0,-4.962785693E0,3.695048529E-1,6.068122539E0
6.179059792E0,-4.073157852E0,-4.785106351E0,6.752352941E-1,6.320110789E0
6.189054792E0,-4.354010437E0,-4.470700396E0,8.581397080E-1,6.299283505E0
6.199048792E0,-4.399551476E0,-4.044719042E0,9.183783084E-1,6.046422416E0
6.209043792E0,-4.418784138E0,-3.604752901E0,8.414482462E-1,5.764367432E0
6.219038792E0,-4.399828634E0,-3.151503641E0,6.610891253E-1,5.452293650E0
6.229032792E0,-4.435144647E0,-2.774427229E0,5.010215968E-1,5.255376022E0
6.239027792E0,-4.460192365E0,-2.530605353E0,3.036213505E-1,5.137067773E0
6.249022792E0,-4.274840014E0,-2.323420960E0,1.890597779E-1,4.869115495E0
6.259016792E0,-4.339753171E0,-2.326141670E0,2.757184374E-1,4.931573107E0
6.269011792E0,-4.612432518E0,-2.414939241E0,2.005577427E-1,5.210248428E0
6.279006792E0,-4.466426959E0,-2.300129746E0,1.268857491E-1,5.025501629E0
6.289000792E0,-4.326432045E0,-2.360073062E0,1.817583597E-1,4.931632103E0
6.298995792E0,-4.328642877E0,-2.507911139E0,7.569454551E-2,5.003248655E0
6.308990792E0,-4.392191586E0,-2.600903503E0,3.334433198E-2,5.104621220E0
6.318984792E0,-5.122275517E0,-2.881685044E0,-4.168187678E-2,5.877376332E0
6.328979792E0,-6.032392294E0,-3.293914917E0,-1.371441042E-1,6.874477491E0
6.338974792E0,-6.783919135E0,-3.877607372E0,-9.137794733E-2,7.814457607E0
6.348968792E0,-7.053691539E0,-4.544057810E0,-2.875824380E-1,8.395577964E0
6.358963792E0,-6.362896219E0,-5.428973088E0,-5.514824831E-1,8.382382120E0
6.368958792E0,-5.743129951E0,-6.418814312E0,-6.428148222E-1,8.637009303E0
6.378952792E0,-4.419292553E0,-7.041846834E0,-4.042922777E-1,8.323533249E0
6.388947792E0,-2.760797369E0,-7.349601581E0,2.311264014E-1,7.854429637E0
6.398942792E0,-1.106354890E0,-7.230369253E0,1.069439371E0,7.392290662E0
6.408936792E0,1.399179064E0,-5.970195462E0,2.069830141E0,6.471872427E0
6.418931792E0,4.278007159E0,-3.650957015E0,3.144502185E0,6.443502647E0
6.428926792E0,6.917516903E0,-1.052458472E0,3.806783558E0,7.965633056E0
6.438920792E0,9.994404809E0,2.268607407E0,4.193581551E0,1.107342916E1
6.448915792E0,1.173410232E1,5.054736668E0,3.749466811E0,1.331533032E1
6.458910792E0,1.209597247E1,5.938194820E0,2.684578328E0,1.373978415E1
6.468904792E0,1.111756255E1,5.897556671E0,1.465013450E0,1.266995012E1
6.478899792E0,9.492492097E0,5.266528666E0,4.685613638E-1,1.086569281E1
6.488894792E0,8.383023857E0,4.356218930E0,-1.965377820E-1,9.449357622E0
6.498888792E0,8.271526226E0,3.757755239E0,-4.073626506E-1,9.094218761E0
6.508883792E0,8.242201855E0,3.474391567E0,-3.564029968E-1,8.951665279E0
6.518878792E0,8.427632850E0,3.407355579E0,-1.940579778E-1,9.092454344E0
6.528872792E0,8.450938683E0,3.235125257E0,-4.209001243E-2,9.049097834E0
6.538867792E0,7.927564934E0,2.900613066E0,-2.892880708E-1,8.446509903E0
6.548862792E0,7.097938004E0,2.511115413E0,-1.009911207E0,7.596469257E0
6.558856792E0,6.437701403E0,1.966312789E0,-1.838866292E0,6.977952033E0
6.568851792E0,5.593809021E0,1.148433500E0,-2.697110081E0,6.315378187E0
6.578846792E0,4.587866904E0,1.414324522E-1,-3.170415291E0,5.578535559E0
6.588840792E0,4.028868409E0,-8.303122240E-1,-3.001735983E0,5.092309688E0
6.598835792E0,3.800408631E0,-1.654969606E0,-2.623983632E0,4.905845519E0
6.608830792E0,2.869846187E0,-2.374080067E0,-2.048639247E0,4.250787699E0
6.618824792E0,1.491277973E0,-3.102041459E0,-1.602740521E0,3.796754981E0
6.628819792E0,4.004889563E-2,-3.741980036E0,-1.250504251E0,3.945602537E0
6.638813792E0,-1.349548628E0,-4.090217396E0,-8.606785691E-1,4.392257671E0
6.648808792E0,-2.263602336E0,-4.078312465E0,-6.330569887E-1,4.707152988E0
6.658803792E0,-2.497988999E0,-3.929388560E0,-4.675457025E-1,4.679598538E0
6.668797792E0,-2.798928816E0,-3.813914822E0,-2.461046290E-1,4.737142205E0
6.678792792E0,-3.621761574E0,-3.867045547E0,-2.523915553E-1,5.304234126E0
6.688787792E0,-4.897603272E0,-4.194157501E0,-4.876607090E-1,6.466474149E0
6.698781792E0,-6.709741942E0,-4.598842712E0,-7.050403064E-1,8.164990695E0
6.708776792E0,-8.323641289E0,-4.858730983E0,-9.960468739E-1,9.689292051E0
6.718771792E0,-8.623048552E0,-4.869469979E0,-1.181431092E0,9.973188238E0
6.728765792E0,-8.107258058E0,-4.878468259E0,-9.763183683E-1,9.512112453E0
6.738760792E0,-8.176295548E0,-5.095377740E0,-1.123929573E0,9.699376315E0
6.748755792E0,-8.836737387E0,-5.656828557E0,-1.771722130E0,1.064080055E1
6.758749792E0,-9.723506817E0,-6.527491246E0,-2.833589941E0,1.204923063E1
6.768744792E0,-9.376335404E0,-7.029979910E0,-4.135826848E0,1.242744329E1
6.778739792E0,-7.566314011E0,-7.054547571E0,-5.009195044E0,1.149381504E1
6.788733792E0,-5.595798828E0,-7.223643785E0,-4.938211015E0,1.038652599E1
6.798728792E0,-2.983052082E0,-7.156511902E0,-3.819342207E0,8.643010889E0
6.808723792E0,2.692031774E-1,-6.142983608E0,-1.867826967E0,6.426312748E0
6.818717792E0,2.792479045E0,-4.454756209E0,7.188917756E-1,5.306561738E0
6.828712792E0,4.666512246E0,-2.271655560E0,3.350703076E0,6.177699137E0
6.838707792E0,6.294861526E0,-9.137806427E-1,5.039274291E0,8.115082382E0
6.848701792E0,7.347155106E0,1.385661471E-1,6.523932631E0,9.826575482E0
6.858696792E0,7.371596467E0,1.879697692E0,7.733249094E0,1.084789562E1
6.868691792E0,6.609780282E0,3.091044893E0,7.646334327E0,1.056930379E1
6.878685792E0,6.982523907E0,2.739132850E0,5.962443223E0,9.581712690E0
6.888680792E0,8.033483738E0,2.066564763E0,4.539901024E0,9.456122471E0
6.898675792E0,8.058732015E0,2.321394608E0,3.960127373E0,9.274407982E0
6.908669792E0,8.266751390E0,2.513710408E0,4.216238927E0,9.614290886E0
6.918664792E0,7.948044223E0,2.837724507E0,5.022633700E0,9.820943775E0
6.928659792E0,7.172123383E0,2.430066865E0,5.442456767E0,9.325498081E0
6.938653792E0,6.165954394E0,1.885057834E0,5.386443949E0,8.401560275E0
6.948648792E0,5.119008093E0,1.390515245E0,5.253180057E0,7.465499127E0
6.958643792E0,4.432494689E0,8.030261922E-1,4.713526492E0,6.519907378E0
6.968637792E0,3.669862817E0,2.723188663E-1,4.143096106E0,5.541416426E0
6.978632792E0,2.885510585E0,-6.334926063E-1,3.573682551E0,4.636668114E0
6.988627792E0,1.826751154E0,-2.026223946E0,2.369570110E0,3.613511555E0
6.998621792E0,4.621983507E-1,-2.958878816E0,1.213311281E0,3.231209592E0
7.008616792E0,-7.254275009E-1,-3.134669507E0,4.029520959E-1,3.242648357E0
7.018611792E0,-1.276946237E0,-2.882117738E0,-2.179052621E-1,3.159853960E0
7.028605792E0,-1.126686828E0,-2.304641458E0,-4.873478830E-1,2.611188123E0
7.038600792E0,-1.070944152E0,-2.357599690E0,-1.045023737E0,2.792359627E0
7.048595792E0,-1.409651720E0,-2.802371072E0,-1.949634776E0,3.693437066E0
7.058589792E0,-2.130471907E0,-2.814572457E0,-2.545193571E0,4.351866149E0
7.068584792E0,-2.755282275E0,-2.407036144E0,-2.660739815E0,4.523819158E0
7.078579792E0,-3.074950432E0,-2.130641769E0,-2.725251560E0,4.628385309E0
7.088573792E0,-2.731161633E0,-1.968276869E0,-2.387228116E0,4.127010514E0
7.098568792E0,-2.256080770E0,-1.773461677E0,-1.794566617E0,3.384602799E0
7.108563792E0,-1.982775917E0,-1.692666605E0,-1.405966512E0,2.961969346E0
7.118557792E0,-1.445263602E0,-1.461676444E0,-1.117643816E0,2.339746270E0
7.128552792E0,-1.138235006E0,-1.061000669E0,-6.964893383E-1,1.704816338E0
7.138547792E0,-1.192540582E0,-7.987495387E-1,-5.321001327E-1,1.530779023E0
7.148541792E0,-1.275170145E0,-6.563277376E-1,-5.693983519E-1,1.543061723E0
7.158536792E0,-1.030798265E0,-6.835821944E-1,-4.838027161E-1,1.328116993E0
7.168531792E0,-9.092542400E-1,-9.851769000E-1,-5.137603408E-1,1.435711143E0
7.178525792E0,-8.233744296E-1,-9.794904828E-1,-5.521174908E-1,1.393621463E0
7.188520792E0,-8.433279068E-1,-7.253757530E-1,-4.910626191E-1,1.215941790E0
7.198515792E0,-9.888588917E-1,-6.347672993E-1,-6.458635604E-1,1.340862100E0
7.208509792E0,-8.658583251E-1,-6.201276255E-1,-8.219910514E-1,1.345339437E0
7.218504792E0,-6.562365941E-1,-4.080140305E-1,-9.599385631E-1,1.232316502E0
7.228499792E0,-5.162318127E-1,-2.022978741E-1,-1.182653160E0,1.306173117E0
7.238493792E0,-1.060681630E-1,3.369498950E-1,-1.128769898E0,1.182754062E0
7.248488792E0,5.263616387E-1,9.510139579E-1,-1.097235864E0,1.544477473E0
7.258483792E0,3.120580056E-1,2.007232189E-2,-1.192756564E0,1.233065821E0
7.268477792E0,-1.287802470E-1,-5.857477516E-1,-1.189514283E0,1.332152022E0
7.278472792E0,-1.031208813E0,-4.121936202E-2,-1.133323710E0,1.532812214E0
7.288467792E0,-1.436598759E0,-1.268114895E-1,-1.254732957E0,1.911609778E0
7.298461792E0,-1.293191410E0,-3.977498281E-1,-1.512387591E0,2.029252368E0
7.308456792E0,-7.783430484E-1,-1.405425060E-1,-1.313253061E0,1.533037409E0
7.318451792E0,-3.197579481E-1,1.433187640E-1,-1.161628911E0,1.213328950E0
7.328445792E0,-1.791873389E-1,4.183331966E-2,-1.351296800E0,1.363767271E0
7.338440792E0,-7.965438958E-2,-2.353720647E-1,-1.476842367E0,1.497600817E0
7.348435792E0,-8.014025666E-2,-5.609584808E-2,-1.199442855E0,1.203425265E0
7.358429792E0,3.598546813E-1,-6.375043809E-2,-4.827858853E-1,6.055094723E-1
7.368424792E0,8.692079026E-1,-9.522190690E-3,1.219261408E0,1.497401560E0
7.378419792E0,1.201070208E0,-4.549133778E-4,2.929836280E0,3.166466561E0
7.388413792E0,1.015781592E0,-5.172324175E-1,3.734639441E0,3.904724494E0
7.398408792E0,3.992213530E-1,-9.714224946E-1,4.002550092E0,4.138048645E0
7.408403792E0,3.120308161E-2,-9.974987376E-1,3.574484205E0,3.711187774E0
7.418397792E0,1.670167981E-1,-9.475296021E-1,3.213909804E0,3.354835791E0
7.428392792E0,3.561599719E-1,-7.327198559E-1,3.078569566E0,3.184543748E0
7.438387792E0,4.236991134E-1,-5.274539351E-1,3.218605118E0,3.288943219E0
7.448381792E0,2.635510395E-1,-8.806035411E-1,3.294983203E0,3.420794653E0
7.458376792E0,3.852123745E-2,-1.601710827E0,3.237902099E0,3.612612831E0
7.468371792E0,-2.210504063E-1,-1.706147361E-1,3.943137703E0,3.953012473E0
7.478366167E0,3.579048541E-1,-7.942343187E-1,3.248000826E0,3.362798448E0
7.488361167E0,-4.252833433E-2,-1.329283202E0,1.886418189E0,2.308110932E0
7.498356167E0,-8.802865490E-1,-3.918792236E-1,1.236619452E0,1.567705777E0
7.508350167E0,-5.983451392E-1,-2.046396840E-1,7.703846955E-1,9.966879577E-1
7.518345167E0,-1.763771671E-1,-5.360247838E-1,3.523532152E-2,5.653963228E-1
7.528340167E0,-2.258776483E-1,2.894342512E-1,-3.098147213E-2,3.684463996E-1
7.538334167E0,2.190233959E-1,1.842638916E-1,-4.770263779E-1,5.563080037E-1
7.548329167E0,1.435405196E-1,8.156573474E-2,-6.435153186E-1,6.643559401E-1
7.558324167E0,-1.066802569E-2,1.855719137E-1,-4.423395252E-1,4.798072504E-1
7.568318167E0,2.120146309E-1,1.986994976E-1,-5.460656226E-1,6.185623317E-1
7.578313167E0,4.189291741E-1,4.700746232E-1,-8.083804876E-1,1.024671077E0
7.588308167E0,3.551210678E-1,5.356172329E-1,-9.692063999E-1,1.162909213E0
7.598302167E0,2.489411864E-1,4.662400192E-1,-8.949023223E-1,1.039327492E0
7.608297167E0,7.219586402E-2,3.849789244E-1,-7.101677299E-1,8.110235629E-1
7.618292167E0,1.415646724E-1,2.530996531E-1,-8.741470456E-1,9.209956831E-1
7.628286167E0,3.445175077E-1,3.859162331E-1,-1.300057064E0,1.399204067E0
7.638281167E0,6.672395191E-1,5.820195669E-1,-1.594100676E0,1.823489050E0
7.648276167E0,9.569070742E-1,6.437965697E-1,-1.678734444E0,2.036736239E0
7.658270167E0,9.395403320E-1,5.915750867E-1,-1.562902272E0,1.917123009E0
7.668265167E0,7.775635415E-1,4.180922914E-1,-1.382753651E0,1.640552920E0
7.678260167E0,7.323152286E-1,4.608553183E-1,-1.194880857E0,1.475267258E0
7.688254167E0,4.513699651E-1,6.246399218E-1,-6.347234452E-1,9.983905694E-1
7.698249167E0,3.631362118E-1,-1.480123240E-1,-2.236688626E-1,4.514458068E-1
7.708244167E0,4.892009753E-1,-3.248625308E-1,4.531849408E-1,7.417747965E-1
7.718238167E0,7.571157552E-1,-1.497501165E-1,1.408156294E0,1.605787506E0
7.728233167E0,5.952239686E-1,-1.545050722E-1,1.807274956E0,1.909032780E0
7.738228167E0,1.065890403E-1,-4.251270765E-1,1.527571641E0,1.589204006E0
7.748222167E0,-1.626259777E-1,-6.961443526E-1,7.581844801E-1,1.042069035E0
7.758217167E0,-1.766590029E-1,-8.523304993E-1,-2.540240979E-1,9.067546116E-1
7.768212167E0,-6.080465470E-1,-1.489164789E0,-2.867416084E-1,1.633876716E0
7.778206167E0,-5.486050683E-1,-1.590412252E0,7.472981340E-1,1.840878365E0
7.788201167E0,-8.359345412E-1,-1.170243614E0,2.065496185E0,2.516849452E0
7.798196167E0,-7.205556008E-1,-1.135412335E0,3.024686304E0,3.310149360E0
7.808190167E0,-4.415715665E-1,-1.159781776E0,3.377783870E0,3.598541800E0
7.818185167E0,-4.446860860E-1,-1.036282150E0,3.104073659E0,3.302559566E0
7.828180167E0,-4.817564830E-1,-1.275391170E0,2.461648554E0,2.813969713E0
7.838174167E0,-3.896376204E-1,-1.534573097E0,1.727089748E0,2.342983368E0
7.848169167E0,-8.216808566E-1,-1.182193569E0,8.530187166E-1,1.673434192E0
7.858164167E0,-1.224716275E0,-9.077697051E-1,6.394018024E-2,1.525799508E0
7.868158167E0,-1.272804069E0,-8.828646594E-1,-9.062353957E-1,1.794642805E0
7.878153167E0,-1.200119086E0,-6.608821338E-1,-2.076548299E0,2.487790959E0
7.888148167E0,-1.962447634E0,-6.309864897E-1,-2.755114460E0,3.440930158E0
7.898142167E0,-2.326563546E0,-3.479028994E-1,-3.453657925E0,4.178718395E0
7.908137167E0,-1.862937086E0,-8.756907105E-2,-4.308020332E0,4.694384103E0
7.918132167E0,-1.321269009E0,2.200728250E-1,-5.007788204E0,5.183833190E0
7.928126167E0,-1.329008383E0,5.739235121E-1,-5.287961050E0,5.482534409E0
7.938121167E0,-1.492210019E0,6.890855938E-1,-4.971759415E0,5.236403478E0
7.948116167E0,-1.259223472E0,1.632378888E-1,-4.410928696E0,4.590052540E0
7.958110167E0,-1.088302781E0,-1.913828766E-1,-3.988144307E0,4.138396472E0
7.968105167E0,-1.094308237E0,-4.740203243E-1,-3.964317487E0,4.139809045E0
7.978100167E0,-1.247704457E0,-7.724972945E-1,-3.882032838E0,4.150144267E0
7.988094167E0,-1.449546980E0,-8.807655090E-1,-3.520333725E0,3.907644286E0
7.998089167E0,-1.591873764E0,-7.904973632E-1,-2.912703938E0,3.412153630E0
8.008084167E0,-1.531611920E0,-4.775450259E-1,-2.121754586E0,2.660023843E0
8.018078167E0,-1.083727846E0,-6.083449012E-1,-1.270228663E0,1.777084809E0
8.028073167E0,-3.336444640E-1,-6.727888191E-1,-1.220979905E0,1.433441785E0
8.038068167E0,1.159751188E-1,-7.677136874E-1,-1.164433236E0,1.399549676E0
8.048062167E0,3.288331557E-1,-1.133059416E0,-1.178518009E0,1.667590952E0
8.058057167E0,5.558112500E-1,-1.177929195E0,-1.291390906E0,1.834157519E0
8.068052167E0,8.834197795E-1,-1.146529062E0,-1.373805656E0,1.995570439E0
8.078046167E0,1.098610252E0,-9.448562551E-1,-1.227418274E0,1.899013809E0
8.088041167E0,1.154279619E0,-6.469909036E-1,-5.091240835E-1,1.417803231E0
8.098036167E0,9.621562658E-1,-4.013318324E-1,6.395742953E-2,1.044462767E0
8.108030167E0,8.913070156E-1,-3.939046991E-1,5.678874314E-1,1.127867564E0
8.118025167E0,6.330903178E-1,-9.917462468E-3,1.148102548E0,1.311122102E0
8.128020167E0,4.818846832E-1,2.453140855E-1,1.356813063E0,1.460593556E0
8.138014167E0,4.325533327E-1,4.746535778E-1,1.453202074E0,1.588771435E0
8.148009167E0,4.715154137E-1,8.946669719E-1,1.596472306E0,1.889835866E0
8.158004167E0,5.518429640E-1,4.573969826E-1,1.551479736E0,1.709044185E0
8.167998167E0,6.416244753E-1,-9.446744066E-1,1.775574861E0,2.111103453E0
8.177993167E0,5.998282123E-1,-1.565265424E0,2.205747499E0,2.770410035E0
8.187988167E0,4.296643697E-1,-9.680185381E-1,2.853782716E0,3.043968980E0
8.197982167E0,1.256087172E-1,-4.832913771E-1,3.568434675E0,3.603203316E0
8.207977167E0,5.090147406E-2,-5.250586233E-1,4.714821065E0,4.744240212E0
8.217972167E0,2.118112940E-1,-4.875110203E-1,6.142983023E0,6.165936380E0
8.227966167E0,4.937636307E-1,-8.361296189E-1,7.096018363E0,7.162149948E0
8.237961167E0,5.673272681E-1,-1.630225651E0,7.329803494E0,7.530306445E0
8.247956167E0,2.185158211E-1,-1.828648283E0,6.871904528E0,7.114406197E0
8.257950167E0,-5.875046206E-1,-1.744581986E0,5.763014578E0,6.049881404E0
8.267945167E0,-1.164211919E0,-1.686431719E0,4.913375552E0,5.323598468E0
8.277940167E0,-1.160668214E0,-2.011189000E0,4.269443327E0,4.860059487E0
8.287934167E0,-1.163940754E0,-2.476815062E0,3.642568599E0,4.556059364E0
8.297929167E0,-1.183104492E0,-2.526029322E0,3.177865813E0,4.228402949E0
8.307924167E0,-1.279333363E0,-2.560926674E0,2.745833175E0,3.966691204E0
8.317918167E0,-1.054241653E0,-2.748460329E0,2.606619156E0,3.931910867E0
8.327913167E0,-9.241750918E-1,-2.780139374E0,2.410794734E0,3.794101447E0
8.337908167E0,-8.638298529E-1,-2.538075171E0,1.774897753E0,3.215321076E0
8.347902167E0,-5.427723976E-1,-2.336281911E0,9.520910150E-1,2.580560471E0
8.357897167E0,-2.783675916E-1,-2.202323955E0,4.260339797E-1,2.260359323E0
8.367892167E0,-1.066717053E-1,-1.868735624E0,-1.205526298E-1,1.875655784E0
8.377886167E0,1.361927623E-1,-1.657488002E0,-7.137842327E-1,1.809779786E0
8.387881167E0,2.378553041E-1,-1.479016362E0,-1.311390138E0,1.990931600E0
8.397876167E0,3.094229579E-2,-1.218929871E0,-1.813013413E0,2.184894755E0
8.407870167E0,-2.601521261E-1,-1.029464296E0,-2.086690587E0,2.341314476E0
8.417865167E0,-5.747773518E-1,-9.158166432E-1,-2.148751765E0,2.405456978E0
8.427860167E0,-8.598091612E-1,-1.082779793E0,-2.177428557E0,2.579317544E0
8.437854167E0,-1.041057132E0,-1.194969150E0,-2.398121772E0,2.874498087E0
8.447849167E0,-1.199016666E0,-8.796276408E-1,-2.832549429E0,3.199175210E0
8.457844167E0,-1.017658548E0,-6.037606841E-1,-3.249845330E0,3.458561920E0
8.467838167E0,-8.802334124E-1,-1.436269122E-1,-3.694438080E0,3.800567362E0
8.477833167E0,-7.647680064E-1,1.706217527E-2,-4.253231921E0,4.321474632E0
8.487827542E0,-8.178901798E-1,-9.123293638E-2,-4.986809564E0,5.054259334E0
8.497821542E0,-9.703286999E-1,-2.364491218E-1,-5.835287333E0,5.920137180E0
8.507816542E0,-1.026903727E0,-3.923610342E-1,-6.621717957E0,6.712348855E0
8.517811542E0,-1.054692620E0,-3.570684099E-1,-7.268039939E0,7.352841555E0
8.527805542E0,-8.162751058E-1,-4.732011294E-1,-7.651317909E0,7.709272994E0
8.537800542E0,-6.677645990E-1,-7.146227235E-1,-7.705565452E0,7.767389145E0
8.547795542E0,-8.771924948E-1,-6.702967358E-1,-7.459037485E0,7.540292075E0
8.557789542E0,-1.023330567E0,-8.641278416E-1,-7.372867652E0,7.493537202E0
8.567784542E0,-9.305462180E-1,-1.273352830E0,-7.125495347E0,7.297946809E0
8.577779542E0,-7.324695951E-1,-1.599491224E0,-6.676573611E0,6.904456464E0
8.587773542E0,-4.023156995E-1,-1.921423715E0,-6.107624325E0,6.415356725E0
8.597768542E0,6.519875687E-2,-2.164676072E0,-5.296621361E0,5.722261023E0
8.607763542E0,4.604478039E-1,-2.198127993E0,-4.298925573E0,4.850210298E0
8.617757542E0,7.404082136E-1,-2.217335511E0,-3.214944761E0,3.975003259E0
8.627752542E0,8.389503157E-1,-2.211254407E0,-1.988350945E0,3.089825750E0
8.637747542E0,8.198472429E-1,-1.706688813E0,-5.824230248E-1,1.980947447E0
8.647741542E0,6.444687802E-1,-1.005083746E0,9.546281219E-1,1.528675307E0
8.657736542E0,9.904522580E-1,-1.259462770E0,2.387039251E0,2.874925830E0
8.667731542E0,1.472515427E0,-1.864920608E0,3.913149088E0,4.578096367E0
8.677725542E0,1.741943576E0,-2.227661694E0,5.912320890E0,6.553806707E0
8.687720542E0,1.311827071E0,-2.055719640E0,8.696215931E0,9.031669005E0
8.697715542E0,3.900020481E-1,-1.772720250E0,1.131354602E1,1.145822683E1
8.707709542E0,-3.688916261E-1,-2.171357393E0,1.236449532E1,1.255912491E1
8.717704542E0,-9.353533602E-1,-2.933422378E0,1.185204885E1,1.224544465E1
8.727699542E0,-1.546486360E0,-3.313683476E0,1.058725400E1,1.120098503E1
8.737693542E0,-1.705425376E0,-3.410868586E0,9.007414688E0,9.781411942E0
8.747688542E0,-1.697029797E0,-2.874317552E0,7.809709625E0,8.493125217E0
8.757683542E0,-1.524646279E0,-2.643346102E0,7.068588490E0,7.699140740E0
8.767677542E0,-1.411511280E0,-2.637000704E0,6.393847286E0,7.058854009E0
8.777672542E0,-1.264934594E0,-2.341723330E0,5.875145463E0,6.449888518E0
8.787667542E0,-9.909584807E-1,-2.096336739E0,5.050291615E0,5.557164009E0
8.797661542E0,-4.249566302E-1,-1.891521639E0,3.943342940E0,4.394131972E0
8.807656542E0,1.937110552E-1,-1.569118447E0,2.886325979E0,3.290977717E0
8.817651542E0,3.853460930E-1,-1.229047308E0,1.963699084E0,2.348438415E0
8.827645542E0,4.045234985E-1,-1.150982301E0,1.095875802E0,1.639921734E0
8.837640542E0,2.985433178E-1,-1.116690720E0,5.150940907E-1,1.265483386E0
8.847635542E0,8.366757123E-2,-1.093759695E0,2.410573125E-1,1.123129182E0
8.857629542E0,-2.002980167E-2,-1.174224983E0,-7.905786395E-2,1.177053801E0
8.867624542E0,1.239795733E-1,-1.105186324E0,-6.425148600E-1,1.284380430E0
8.877619542E0,3.805142829E-1,-9.750471836E-1,-1.164094682E0,1.565447080E0
8.887613542E0,5.408208163E-1,-7.843829298E-1,-1.809504499E0,2.045006178E0
8.897608542E0,5.061929474E-1,-6.215227711E-1,-2.694056665E0,2.810776257E0
8.907603542E0,2.515409864E-1,-5.263248378E-1,-3.521485627E0,3.569474992E0
8.917597542E0,-4.877127858E-2,-3.625373107E-1,-4.172037485E0,4.188043542E0
8.927592542E0,-1.903496005E-1,-2.604285532E-1,-4.788423184E0,4.799276257E0
8.937587542E0,-2.780112038E-1,-2.475377816E-1,-5.390800125E0,5.403636847E0
8.947581542E0,-3.488276365E-1,-2.200301403E-1,-5.859747405E0,5.874243239E0
8.957576542E0,-4.292307986E-1,-2.273976320E-1,-6.204788092E0,6.223772492E0
8.967571542E0,-5.399538935E-1,-3.059877187E-1,-6.497036608E0,6.526611938E0
8.977565542E0,-6.466599512E-1,-4.065341002E-1,-6.841595485E0,6.884102545E0
8.987560542E0,-7.160371649E-1,-4.784671319E-1,-7.128792007E0,7.180620829E0
8.997555542E0,-5.742220856E-1,-6.140921295E-1,-7.049614275E0,7.099570520E0
9.007549542E0,-5.029869922E-1,-9.881659967E-1,-7.160540634E0,7.245882287E0
9.017544542E0,-2.879911949E-1,-1.104524419E0,-7.235740505E0,7.325220391E0
9.027539542E0,-2.276909064E-1,-1.131464295E0,-7.209735013E0,7.301529536E0
9.037533542E0,-1.265536638E-1,-1.231901919E0,-7.008424734E0,7.116994831E0
9.047528542E0,2.741074564E-1,-1.445298977E0,-6.601155639E0,6.763082123E0
9.057523542E0,3.798412318E-1,-1.583672166E0,-6.153669394E0,6.365527779E0
9.067517542E0,4.631909886E-1,-1.755330631E0,-5.739647350E0,6.019907243E0
9.077512542E0,6.317301824E-1,-1.982369828E0,-5.414707051E0,5.800683202E0
9.087507542E0,6.550917093E-1,-2.198842523E0,-5.121685533E0,5.612104443E0
9.097501542E0,5.291198069E-1,-2.343940009E0,-3.871315768E0,4.556435923E0
9.107496542E0,7.909894064E-2,-1.615837115E0,-1.129234752E0,1.972905814E0
9.117491542E0,2.152400281E-1,-1.678172527E0,7.180117697E-1,1.837969587E0
9.127485542E0,3.869081036E-1,-1.898990872E0,2.667769922E0,3.297402094E0
9.137480542E0,8.442224577E-1,-1.797517999E0,3.670231192E0,4.173053979E0
9.147475542E0,4.707970467E-1,-1.206598093E0,4.028896476E0,4.231965930E0
9.157469542E0,3.109753937E-1,-8.565732390E-1,4.090854743E0,4.191123469E0
9.167464542E0,5.195631176E-1,-7.982855621E-1,4.120355700E0,4.229011322E0
9.177459542E0,7.610773169E-1,-7.979940784E-1,4.408044557E0,4.543884907E0
9.187453542E0,8.364495347E-1,-9.007521692E-1,4.742431033E0,4.899148334E0
9.197448542E0,7.921221583E-1,-1.010129600E0,4.750199643E0,4.920591019E0
9.207443542E0,6.125176936E-1,-1.082700856E0,4.437991657E0,4.609033414E0
9.217437542E0,2.758927210E-1,-1.037527022E0,4.295773339E0,4.427894273E0
9.227432542E0,-9.530544899E-2,-9.140089765E-1,4.822874102E0,4.909644604E0
9.237427542E0,-4.579755646E-1,-9.257244578E-1,5.561376269E0,5.656466512E0
9.247421542E0,-7.154235727E-1,-9.756409684E-1,5.841632146E0,5.965599075E0
9.257416542E0,-9.297412757E-1,-9.270339417E-1,5.665618091E0,5.815757829E0
9.267411542E0,-1.114980483E0,-8.627531612E-1,5.237603660E0,5.424022178E0
9.277405542E0,-1.287817965E0,-1.030605673E0,4.897377570E0,5.167681320E0
9.287400542E0,-1.553371164E0,-1.197581979E0,4.899970225E0,5.277961043E0
9.297395542E0,-1.466788518E0,-1.177556435E0,4.700218813E0,5.062624281E0
9.307389542E0,-1.125619126E0,-1.417523826E0,4.229079412E0,4.600163572E0
9.317384542E0,-1.055963585E0,-1.563951847E0,3.842065072E0,4.280475265E0
9.327379542E0,-1.043576259E0,-1.507263676E0,3.427082330E0,3.886616587E0
9.337373542E0,-1.080445146E0,-1.743816293E0,3.265848282E0,3.856685362E0
9.347368542E0,-1.590221048E0,-2.066323566E0,3.519825017E0,4.380372611E0
9.357363542E0,-2.211137170E0,-2.389059464E0,3.628573288E0,4.874759155E0
9.367357542E0,-3.080700584E0,-3.234507206E0,3.418222629E0,5.624677670E0
9.377352542E0,-3.787493593E0,-3.478112150E0,2.819153166E0,5.864298459E0
9.387347542E0,-3.745629283E0,-3.646851100E0,1.891629227E0,5.559453463E0
9.397341542E0,-3.598760382E0,-4.336953524E0,1.163060895E0,5.754385528E0
9.407336542E0,-3.368008495E0,-4.372763627E0,6.541823941E-1,5.558101975E0
9.417331542E0,-3.027146813E0,-4.317801554E0,3.570660710E-2,5.273357853E0
9.427325542E0,-2.862559386E0,-4.368936040E0,-6.061440092E-1,5.258256262E0
9.437320542E0,-2.293545197E0,-3.585258869E0,-1.396360706E0,4.479314004E0
9.447315542E0,-1.463503991E0,-2.352267614E0,-2.322555572E0,3.615144706E0
9.457309542E0,-6.262093145E-1,-1.436365601E0,-2.917348967E0,3.311526723E0
9.467304542E0,1.576625687E-1,-6.707732838E-1,-3.226289529E0,3.299051138E0
9.477299542E0,6.056101584E-1,3.158665895E-2,-3.518587747E0,3.570465111E0
9.487293958E0,1.049297759E0,5.378292346E-1,-3.794483939E0,3.973461267E0
9.497288958E0,1.870228126E0,9.698355603E-1,-4.136770881E0,4.642327818E0
9.507283958E0,2.929961118E0,1.441177860E0,-4.472949528E0,5.537954790E0
9.517277958E0,3.715438355E0,1.619995070E0,-4.670419648E0,6.183986246E0
9.527272958E0,4.076529064E0,1.796659335E0,-4.805331870E0,6.552655062E0
9.537267959E0,4.593700086E0,2.287609103E0,-5.012356634E0,7.173489730E0
9.547261958E0,5.400410024E0,2.738124790E0,-5.161402745E0,7.956244974E0
9.557256958E0,6.083444334E0,2.731205780E0,-5.093541130E0,8.391182349E0
9.567251958E0,6.305339736E0,2.417038391E0,-4.724457276E0,8.241351851E0
9.577245958E0,6.238211362E0,2.212541964E0,-4.208964113E0,7.843851212E0
9.587240958E0,5.780884838E0,1.774044644E0,-3.502012644E0,6.987843478E0
9.597235958E0,5.280974797E0,1.454860929E0,-2.845121235E0,6.172522173E0
9.607229959E0,5.227208480E0,1.329997147E0,-2.415749373E0,5.910029267E0
9.617224958E0,5.697401801E0,1.120660980E0,-2.300403688E0,6.245648521E0
9.627219958E0,5.743225261E0,6.555401176E-1,-2.262728031E0,6.207600775E0
9.637213958E0,5.088017850E0,1.591606253E-1,-2.247184378E0,5.564449243E0
9.647208958E0,4.306692429E0,-4.017709583E-1,-2.165380954E0,4.837136990E0
9.657203958E0,3.364648100E0,-1.332602082E0,-1.763480480E0,4.025735777E0
9.667197958E0,1.772861168E0,-2.065858127E0,-1.110785033E0,2.940178551E0
9.677192958E0,-1.085213989E-2,-2.446242310E0,-5.543470341E-1,2.508290223E0
9.687187959E0,-1.574204355E0,-3.002075121E0,-3.009982896E-1,3.403112451E0
9.697181958E0,-2.950550919E0,-3.623375114E0,-3.966686779E-1,4.689556906E0
9.707176958E0,-4.710687376E0,-4.599315167E0,-3.907904720E-1,6.595224996E0
9.717171958E0,-7.718618191E0,-6.089888551E0,-3.082500064E-1,9.836606499E0
9.727165958E0,-1.150035988E1,-6.529858784E0,-7.361059785E-2,1.322508040E1
9.737160958E0,-1.449900736E1,-5.983987874E0,3.730435878E-1,1.568975739E1
9.747155958E0,-1.499471442E1,-5.803662082E0,4.847926497E-1,1.608598701E1
9.757149959E0,-1.367511597E1,-6.671050331E0,3.220014882E-1,1.521891567E1
9.767144958E0,-1.255411585E1,-7.400134973E0,-2.671078277E-1,1.457529310E1
9.777139958E0,-1.228860899E1,-7.407536963E0,-9.601724517E-1,1.438066222E1
9.787133958E0,-1.178868257E1,-7.871766710E0,-1.843834087E0,1.429466586E1
9.797128958E0,-1.046632189E1,-8.466712132E0,-2.169981835E0,1.363590589E1
9.807123958E0,-7.424738302E0,-7.506920918E0,-2.179411055E0,1.078102189E1
9.817117958E0,-3.229593498E0,-6.007596592E0,-1.955830486E0,7.095545353E0
9.827112958E0,4.814866340E-1,-4.956524495E0,-1.160780481E0,5.113352694E0
9.837107959E0,2.345771065E0,-3.899915670E0,4.315128207E-2,4.551246659E0
9.847101958E0,3.136658145E0,-1.890511824E0,1.403674988E0,3.922112027E0
9.857096958E0,4.060757369E0,-3.844836652E-2,2.520842841E0,4.779736114E0
9.867091958E0,5.208634214E0,1.347542887E0,3.107239634E0,6.212944580E0
9.877085958E0,7.215765247E0,1.394540468E0,3.396469232E0,8.096172828E0
9.887080958E0,8.529808266E0,1.794041537E0,3.731099537E0,9.481419611E0
9.897075958E0,9.218169390E0,2.980329911E0,4.117972375E0,1.052685659E1
9.907069959E0,1.043284073E1,3.949513507E0,4.690105469E0,1.210123597E1
9.917064958E0,1.172678044E1,4.311758457E0,4.982819424E0,1.345128730E1
9.927059958E0,1.233931838E1,4.410507989E0,4.963737620E0,1.401249621E1
9.937053958E0,1.232943659E1,4.406467563E0,5.355677070E0,1.414620938E1
9.947048958E0,1.186282761E1,4.152237643E0,5.502533984E0,1.372026372E1
9.957043958E0,1.139880310E1,3.713885334E0,5.278962770E0,1.309935511E1
9.967037958E0,1.059858591E1,3.064821008E0,4.542694824E0,1.193143861E1
9.977032958E0,9.757729985E0,2.395002574E0,3.467839762E0,1.062898134E1
9.987027959E0,9.294069757E0,1.483714600E0,2.911465206E0,9.851790259E0
9.997021958E0,8.082578130E0,1.502804589E-1,2.766468291E0,8.544237839E0
1.000701696E1,5.911587650E0,-1.221785066E0,2.535827501E0,6.547522310E0
1.001701196E1,3.576638611E0,-2.636463345E0,2.241576313E0,4.976740609E0
1.002700596E1,1.289430042E0,-3.957671542E0,2.085370286E0,4.655594817E0
1.003700096E1,-1.376238098E0,-5.215199468E0,2.160226633E0,5.810242327E0
1.004699596E1,-4.845843719E0,-6.245128033E0,2.176894999E0,8.198944892E0
1.005698996E1,-1.000589342E1,-7.330481186E0,1.584632279E0,1.250459583E1
1.006698496E1,-1.644195058E1,-7.558396297E0,-2.110570031E-1,1.809728263E1
1.007697996E1,-2.161323629E1,-7.837561083E0,-2.776914634E0,2.315751717E1
1.008697396E1,-2.400099592E1,-8.420286409E0,-4.685251111E0,2.586311285E1
1.009696896E1,-2.190147362E1,-9.007806451E0,-5.491848782E0,2.430998821E1
1.010696396E1,-1.747792868E1,-1.046995886E1,-5.576291932E0,2.112328244E1
1.011695796E1,-1.514495746E1,-1.285752085E1,-5.121549293E0,2.051623372E1
1.012695296E1,-1.178166358E1,-1.192343400E1,-4.131800455E0,1.726405659E1
1.013694796E1,-6.742403319E0,-9.194185281E0,-3.509744710E0,1.192943223E1
1.014694196E1,-1.667573864E0,-7.428696283E0,-3.189479845E0,8.254641890E0
1.015693696E1,3.791277326E0,-6.665872037E0,-2.605084847E0,8.099018511E0
1.016693196E1,9.348802035E0,-4.793945587E0,-4.264745674E-1,1.051493673E1
1.017692596E1,1.219911618E1,-1.824145342E0,4.596234562E0,1.316325621E1
1.018692096E1,1.359029041E1,1.208335885E0,8.644776220E0,1.615203470E1
1.019691596E1,1.445911415E1,2.781231633E0,1.229526546E1,1.918266885E1
1.020690996E1,1.371452737E1,2.711546271E0,1.338910643E1,1.935739949E1
1.021690496E1,1.310246890E1,2.252338699E0,1.313209791E1,1.868688622E1
1.022689996E1,1.297307937E1,3.143478338E0,1.269479284E1,1.842118372E1
1.023689396E1,1.330892005E1,3.688600219E0,1.209569297E1,1.835861958E1
1.024688896E1,1.288530565E1,3.510906844E0,1.059686215E1,1.704849131E1
1.025688396E1,1.165490413E1,2.932475713E0,8.263301532E0,1.458486737E1
1.026687796E1,1.044182907E1,1.962192841E0,6.110283054E0,1.225632711E1
1.027687296E1,9.251161720E0,1.058797438E0,4.594440928E0,1.038334882E1
1.028686796E1,7.868414501E0,1.186604708E-1,3.483353887E0,8.605799287E0
1.029686196E1,5.859227003E0,-1.490862821E0,2.712727409E0,6.626620784E0
1.030685696E1,3.217870123E0,-3.549554016E0,2.330091902E0,5.327602661E0
1.031685196E1,-1.793764964E-1,-5.275740954E0,1.888639546E0,5.606476423E0
1.032684596E1,-4.908205444E0,-6.635918505E0,8.240293908E-1,8.294873087E0
1.033684096E1,-1.040512610E1,-6.815665423E0,-1.432336285E0,1.252084388E1
1.034683596E1,-1.567317387E1,-6.517726981E0,-4.869823151E0,1.765911441E1
1.035682996E1,-1.960917680E1,-6.039791946E0,-9.098833566E0,2.244521495E1
1.036682496E1,-2.413434752E1,-7.241150349E0,-1.288846549E1,2.830218245E1
1.037681996E1,-2.434651491E1,-8.581051510E0,-1.551811975E1,3.011974890E1
1.038681396E1,-2.081495336E1,-8.548660859E0,-1.583338641E1,2.751432375E1
1.039680896E1,-1.496953631E1,-8.864436232E0,-1.419568305E1,2.245401221E1
1.040680396E1,-7.745979652E0,-8.858638133E0,-1.218760301E1,1.694146799E1
1.041679796E1,-1.292177941E0,-7.931417080E0,-1.048340745E1,1.320904738E1
1.042679296E1,2.973883941E0,-7.024279459E0,-8.890118957E0,1.171403870E1
1.043678796E1,6.541883583E0,-6.068755544E0,-7.155136637E0,1.143774519E1
1.044678196E1,1.006962456E1,-5.083597355E0,-5.300592206E0,1.246340959E1
1.045677696E1,1.160575009E1,-3.813782090E0,-6.479942858E-2,1.221648755E1
1.046677196E1,1.136208375E1,-2.593890352E0,6.724235435E0,1.345513124E1
1.047676596E1,9.272410501E0,-2.092690415E0,1.304757407E1,1.614299039E1
1.048676054E1,6.695811535E0,-2.301601490E0,1.766128567E1,1.902767124E1
1.049675554E1,3.221617312E0,-1.096365799E0,1.980562103E1,2.009585680E1
1.050674954E1,2.574754754E0,-1.017963992E0,1.902692393E1,1.922730993E1
1.051674454E1,3.545675265E0,-1.770923985E0,1.575785325E1,1.624862837E1
1.052673954E1,3.319157932E0,-1.494996217E0,1.193371808E1,1.247659610E1
1.053673354E1,2.530538694E0,-1.503339025E0,8.851973476E0,9.328509459E0
1.054672854E1,9.987077956E-1,-1.330207062E0,6.799247026E0,6.999759154E0
1.055672354E1,-6.588626517E-1,-9.827807111E-1,4.787508972E0,4.931551488E0
1.056671754E1,-1.621247836E0,-6.294931108E-1,2.172394981E0,2.782805433E0
1.057671254E1,-1.513828637E0,-3.032325107E-1,-1.836914492E-1,1.554789261E0
1.058670754E1,-8.959194455E-1,3.175932723E-1,-2.094522933E0,2.300122487E0
1.059670154E1,-7.438855527E-1,5.930006379E-1,-3.752710846E0,3.871415008E0
1.060669654E1,-9.152788456E-1,6.936873525E-1,-5.217144252E0,5.342053131E0
1.061669154E1,-5.625480464E-1,9.827947444E-1,-6.299175017E0,6.400152475E0
1.062668554E1,4.058924413E-1,1.083633487E0,-6.743486223E0,6.842047694E0
1.063668054E1,1.052941744E0,1.079701819E0,-6.750280103E0,6.916698909E0
1.064667554E1,1.221547596E0,1.253465865E0,-6.580272308E0,6.809062994E0
1.065666954E1,1.053446359E0,1.274483682E0,-6.227978150E0,6.443738800E0
1.066666454E1,8.467040891E-1,7.519899398E-1,-5.451567314E0,5.567942426E0
1.067665954E1,5.850594978E-1,1.594336903E-1,-4.468722868E0,4.509678236E0
1.068665354E1,1.427038562E-1,-1.474667788E-1,-3.363936494E0,3.370189843E0
1.069664854E1,-4.535727574E-1,-7.445423412E-1,-2.075584386E0,2.251249006E0
1.070664354E1,-1.113288372E0,-1.302016466E0,-7.440038127E-1,1.867672228E0
1.071663754E1,-1.599415064E0,-1.668429896E0,4.117381221E-1,2.347619038E0
1.072663254E1,-1.654456074E0,-1.754321401E0,1.193886831E0,2.690768337E0
1.073662754E1,-1.339910224E0,-1.840939130E0,1.649092569E0,2.811391576E0
1.074662154E1,-1.104865750E0,-1.829518933E0,1.806530020E0,2.798467182E0
1.075661654E1,-1.094337400E0,-1.712995620E0,1.676655174E0,2.634976454E0
1.076661154E1,-9.890746540E-1,-1.689757031E0,1.504772762E0,2.469390321E0
1.077660554E1,-9.232795177E-1,-1.631193073E0,1.468631122E0,2.381199967E0
1.078660054E1,-9.709469698E-1,-1.534343301E0,1.411926579E0,2.300105225E0
1.079659554E1,-8.355721600E-1,-1.270294152E0,1.367238064E0,2.044790451E0
1.080658954E1,-6.630793713E-1,-9.275636995E-1,1.344475438E0,1.762856453E0
1.081658454E1,-4.871259812E-1,-7.244296736E-1,1.281471105E0,1.550567079E0
1.082657954E1,-3.735882194E-1,-3.751503396E-1,1.346217908E0,1.446585148E0
1.083657454E1,-4.709935863E-1,-2.350972456E-1,1.527633036E0,1.615787228E0
1.084656854E1,-6.626775214E-1,-3.287836736E-1,1.582486351E0,1.746855247E0
1.085656354E1,-7.481257343E-1,-3.220535284E-1,1.566546257E0,1.765638061E0
1.086655754E1,-6.873360338E-1,-2.370239031E-1,1.664218147E0,1.816103850E0
1.087655254E1,-4.946861386E-1,-2.217328495E-1,1.720726808E0,1.804101045E0
1.088654754E1,-2.034489350E-1,-2.989505947E-2,1.737717063E0,1.749841643E0
1.089654254E1,8.157121651E-2,-6.181676388E-3,1.681310143E0,1.683299104E0
1.090653654E1,9.539699446E-2,-4.543345034E-2,1.526643687E0,1.530295963E0
1.091653154E1,9.105430394E-3,6.803176939E-2,1.373675848E0,1.375389605E0
1.092652654E1,-2.474084850E-3,4.839097202E-2,1.127520933E0,1.128561590E0
1.093652054E1,-8.797318675E-4,-1.401834869E-1,9.228561062E-1,9.334428620E-1
1.094651554E1,3.258650542E-2,-1.378527868E-1,8.109374750E-1,8.232161681E-1
1.095651054E1,1.615626981E-1,-1.419060767E-1,9.139209759E-1,9.388777291E-1
1.096650454E1,3.407098009E-1,-5.203811431E-1,9.482318527E-1,1.134029695E0
1.097649954E1,1.951013038E-1,-7.631347328E-1,1.193878645E0,1.430309532E0
1.098649454E1,-2.582178672E-1,-7.129246920E-1,1.534782427E0,1.711868915E0
1.099648854E1,-6.673626760E-1,-1.181180246E0,1.627502310E0,2.118802371E0
1.100648354E1,-1.277622321E0,-1.425204436E0,1.666450321E0,2.537830403E0
1.101647854E1,-1.780677287E0,-1.648799039E0,1.675027894E0,2.948740124E0
1.102647254E1,-2.157557233E0,-2.122025896E0,1.367756419E0,3.320964429E0
1.103646754E1,-2.652552543E0,-2.380863422E0,8.924359667E-1,3.674369005E0
1.104646254E1,-3.387156664E0,-2.603966859E0,5.085867244E-1,4.302572966E0
1.105645654E1,-3.869372739E0,-2.705880904E0,3.063379669E-1,4.731562090E0
1.106645154E1,-4.081516739E0,-2.582388879E0,1.312944035E-1,4.831640450E0
1.107644654E1,-4.199423504E0,-2.477579293E0,-8.384147108E-2,4.876534252E0
1.108644054E1,-4.272816585E0,-2.201010670E0,-4.348135740E-1,4.826020347E0
1.109643554E1,-4.224853629E0,-1.738269040E0,-1.070867261E0,4.692304779E0
1.110643054E1,-3.757774242E0,-1.230150093E0,-1.901479301E0,4.387454848E0
1.111642454E1,-2.804338660E0,-6.604962176E-1,-2.918155882E0,4.100756556E0
1.112641954E1,-1.400593506E0,-6.928254730E-1,-3.813727126E0,4.121429836E0
1.113641454E1,-5.685928980E-1,-1.166896083E0,-4.487136919E0,4.671117863E0
1.114640854E1,4.129647218E-1,-9.371800303E-1,-4.845066040E0,4.952121888E0
1.115640354E1,1.409522789E0,-3.158700979E-1,-4.682225761E0,4.899976172E0
1.116639854E1,2.072024601E0,4.302971846E-1,-4.317974632E0,4.808674093E0
1.117639254E1,2.458251614E0,8.439713198E-1,-3.833095443E0,4.631188753E0
1.118638754E1,2.316682921E0,1.198689149E0,-3.306399307E0,4.211431088E0
1.119638254E1,1.915524459E0,1.331581158E0,-2.852733725E0,3.685163774E0
1.120637654E1,1.474417819E0,1.203468078E0,-2.352550035E0,3.026009746E0
1.121637154E1,9.989123020E-1,8.081518614E-1,-1.878024511E0,2.275502424E0
1.122636654E1,6.965691528E-1,6.707931644E-1,-1.392989494E0,1.695756994E0
1.123636054E1,6.082799971E-1,7.496089536E-1,-1.022832969E0,1.406451357E0
1.124635554E1,5.290244973E-1,5.998985982E-1,-9.874900585E-1,1.270780021E0
1.125635054E1,3.937434621E-1,2.004788053E-1,-1.703948808E0,1.760303157E0
1.126634454E1,-7.592784941E-2,-3.366242051E-2,-2.288283580E0,2.289790370E0
1.127633954E1,-7.052478826E-1,2.656226349E-1,-2.153237749E0,2.281307249E0
1.128633454E1,-1.128315716E0,2.441797256E-2,-2.142675338E0,2.421724633E0
1.129632854E1,-1.167235514E0,-4.109569341E-1,-1.848908885E0,2.224811995E0
1.130632354E1,-1.238760410E0,-3.670080918E-1,-1.444823014E0,1.938230078E0
1.131631854E1,-1.172725904E0,-3.579560173E-1,-1.301490802E0,1.788098672E0
1.132631254E1,-8.329765078E-1,-3.459978765E-1,-1.138289165E0,1.452331442E0
1.133630754E1,-6.092039668E-1,-3.962073326E-1,-1.119558195E0,1.334736032E0
1.134630254E1,-3.953760778E-1,-3.826336062E-1,-1.050633556E0,1.185985492E0
1.135629654E1,-2.189469253E-1,-3.960243148E-1,-6.473598629E-1,7.898403675E-1
1.136629154E1,-4.770682951E-2,-5.845794779E-1,1.439613730E-1,6.039321025E-1
1.137628654E1,-6.113539880E-2,-6.105171418E-1,9.211177289E-1,1.106764016E0
1.138628054E1,-1.085536317E-1,-4.265087736E-1,1.356120168E0,1.425747360E0
1.139627554E1,-1.829334307E-2,-4.859164846E-1,1.361435872E0,1.445668395E0
1.140627054E1,1.911978488E-1,-5.132878858E-1,1.161806667E0,1.284451557E0
1.141626454E1,2.086431994E-1,-2.579809088E-1,1.048588784E0,1.099829338E0
1.142625954E1,3.051401648E-1,-2.048250407E-1,1.254790260E0,1.307502357E0
1.143625454E1,4.506963658E-1,-2.427114898E-1,1.632872393E0,1.711230065E0
1.144624854E1,5.445105556E-1,-2.319444269E-1,2.022114522E0,2.106949716E0
1.145624354E1,5.466620386E-1,-4.787887287E-1,2.434036832E0,2.540199467E0
1.146623854E1,2.486557692E-1,-4.999860549E-1,2.785075593E0,2.840503794E0
1.147623254E1,-1.209502405E-1,-3.458733308E-1,3.166828609E0,3.187955576E0
1.148622817E1,-2.141039872E-1,-4.363800430E-1,3.574654359E0,3.607550671E0
1.149622317E1,-2.829574366E-1,-4.733853167E-1,3.621952486E0,3.663700094E0
1.150621717E1,-1.964997751E-1,-5.038750380E-1,3.308978514E0,3.352885477E0
1.151621217E1,-4.138016045E-2,-5.577360803E-1,2.983361692E0,3.035330104E0
1.152620717E1,5.139293253E-2,-7.285379273E-1,2.752201962E0,2.847459286E0
1.153620117E1,-2.048425823E-2,-7.907593185E-1,2.472524959E0,2.595977577E0
1.154619617E1,-2.388204601E-1,-8.404542196E-1,2.184567130E0,2.352813646E0
1.155619117E1,-5.682634073E-1,-8.890901899E-1,2.036922011E0,2.294004348E0
1.156618517E1,-9.804128811E-1,-7.923550236E-1,1.880393803E0,2.263827898E0
1.157618017E1,-1.228947321E0,-7.333905315E-1,1.525167850E0,2.091485157E0
1.158617517E1,-1.261084787E0,-6.150405478E-1,1.010601763E0,1.729140145E0
1.159616917E1,-1.185845155E0,-3.939549851E-1,4.744056559E-1,1.336596419E0
1.160616417E1,-1.196035975E0,-3.891976905E-1,-2.007960168E-1,1.273693816E0
1.161615917E1,-1.763912297E0,-9.316865712E-1,-1.035201292E0,2.247458158E0
1.162615317E1,-9.311410260E-1,-8.573532575E-1,-1.543417010E0,1.996049670E0
1.163614817E1,4.436077863E-2,1.685073996E-1,-1.603374944E0,1.612815499E0
1.164614317E1,3.875300646E-1,6.820677656E-1,-2.012647296E0,2.160126182E0
1.165613717E1,9.521565038E-1,3.591003174E-1,-2.769802081E0,2.950823379E0
1.166613217E1,1.522652963E0,-2.851804018E-2,-3.484121334E0,3.802418545E0
1.167612717E1,1.637002282E0,-3.384426892E-2,-3.871021069E0,4.203061505E0
1.168612117E1,1.459358315E0,5.163325310E-2,-3.913312810E0,4.176889972E0
1.169611617E1,1.057618201E0,1.137634277E-2,-3.746593489E0,3.893025617E0
1.170611117E1,3.082925449E-1,-7.616407692E-2,-3.500771865E0,3.515145646E0
1.171610517E1,-1.287766217E0,4.336704433E-1,-1.952326834E0,2.378653390E0
1.172610017E1,-2.624967426E0,1.177733313E0,-2.291114509E-2,2.877157393E0
1.173609517E1,-2.508554918E0,5.058712775E-1,8.871641171E-1,2.708470730E0
1.174608917E1,-1.757770527E0,-3.865114796E-1,6.115520990E-1,1.900827273E0
1.175608417E1,-1.026821501E0,-4.131747830E-1,1.377896369E-2,1.106917186E0
1.176607917E1,-4.986757670E-1,9.692812443E-2,-2.223602557E-1,5.545418516E-1
1.177607317E1,8.109357208E-5,1.839440489E-1,-2.325045902E-1,2.964688924E-1
1.178606817E1,3.523628631E-1,-4.336938322E-2,-1.276657677E-1,3.772784634E-1
1.179606317E1,2.382088048E-1,-1.137499791E-1,-1.205076063E-1,2.901802468E-1
1.180605717E1,6.576641187E-2,-2.036386406E-1,-2.862463492E-1,3.573945849E-1
1.181605217E1,-1.823052205E-2,-2.874964839E-1,-4.444714200E-1,5.296616122E-1
1.182604717E1,-3.224549398E-2,-3.049282032E-1,-6.040273172E-1,6.773994249E-1
1.183604117E1,-7.954369448E-2,-2.852552462E-1,-5.861441928E-1,6.567059993E-1
1.184603617E1,-1.658137335E-1,-3.874984896E-1,-1.902011544E-1,4.624129678E-1
1.185603117E1,-2.911593260E-1,-5.193625581E-1,3.057912523E-1,6.693425953E-1
1.186602617E1,-5.734564658E-1,-7.167341530E-1,6.743020785E-1,1.138965960E0
1.187602017E1,-8.165711211E-1,-8.830120093E-1,1.053050795E0,1.598566414E0
1.188601517E1,-1.044100169E0,-8.319892055E-1,1.461941907E0,1.979804370E0
1.189601017E1,-1.002666141E0,-8.726565903E-1,1.824021381E0,2.256972068E0
1.190600417E1,-8.074205209E-1,-8.824278724E-1,2.346504014E0,2.633759278E0
1.191599917E1,-4.954531471E-1,-7.691497636E-1,2.622231222E0,2.777257957E0
1.192599417E1,1.271652460E-2,-5.713881594E-1,2.563805258E0,2.626736291E0
1.193598817E1,4.766501096E-1,-3.528016967E-1,2.303650939E0,2.378754299E0
1.194598317E1,6.566333277E-1,-7.500866711E-2,1.969843338E0,2.077757542E0
1.195597817E1,7.282400116E-1,1.001610500E-1,1.516313996E0,1.685103524E0
1.196597217E1,6.988039586E-1,2.209651101E-1,1.124958683E0,1.342640902E0
1.197596717E1,5.644680528E-1,3.251040208E-1,7.608665979E-1,1.001616087E0
1.198596217E1,7.003770789E-1,6.245463663E-1,2.030118191E-1,9.601041688E-1
1.199595617E1,1.027622496E0,9.617576319E-1,-5.586511695E-1,1.514290879E0
1.200595117E1,1.422824619E0,1.324709510E0,-1.494828402E0,2.452304454E0
1.201594617E1,1.557098618E0,1.569584470E0,-2.171724890E0,3.099119313E0
1.202594017E1,1.580446696E0,1.586339082E0,-2.524465191E0,3.374493731E0
1.203593517E1,1.528416417E0,1.508724310E0,-2.756203796E0,3.494132962E0
1.204593017E1,1.415168275E0,1.451653147E0,-2.992034283E0,3.614175875E0
1.205592417E1,1.390355469E0,1.347501957E0,-3.195106913E0,3.735981536E0
1.206591917E1,1.447948059E0,1.187354906E0,-3.266645257E0,3.765280400E0
1.207591417E1,1.408922279E0,1.001660786E0,-3.043482764E0,3.500167661E0
1.208590817E1,1.131765281E0,6.191043627E-1,-2.421210380E0,2.743436270E0
1.209590317E1,6.513266871E-1,1.827985793E-1,-1.783517134E0,1.907504951E0
1.210589817E1,2.672770315E-1,-6.911116540E-2,-1.294903913E0,1.324005102E0
1.211589217E1,-1.315272689E-2,-3.824997050E-1,-8.545401621E-1,9.363321564E-1
1.212588717E1,-3.503274839E-1,-6.537520391E-1,-6.021877831E-1,9.553801341E-1
1.213588217E1,-8.273947558E-1,-1.097424145E0,-1.923611158E-1,1.387776868E0
1.214587617E1,-1.647153925E0,-1.600623245E0,4.019130456E-1,2.331661408E0
1.215587117E1,-2.573575371E0,-2.119078900E0,8.103469062E-1,3.430808605E0
1.216586617E1,-3.335072299E0,-2.670447362E0,1.575829296E0,4.553815359E0
1.217586017E1,-4.090774051E0,-2.876098614E0,2.325929416E0,5.515099566E0
1.218585517E1,-4.026760488E0,-2.902308174E0,2.513706315E0,5.563893619E0
1.219585017E1,-3.336158419E0,-2.835263414E0,2.302270412E0,4.946627202E0
1.220584417E1,-2.959939208E0,-2.494925643E0,1.838093290E0,4.285379916E0
1.221583917E1,-3.082770206E0,-2.327285385E0,1.405449618E0,4.110354977E0
1.222583417E1,-3.493461384E0,-2.359836250E0,1.063741844E0,4.347947364E0
1.223582817E1,-3.228814942E0,-2.232600253E0,7.786906654E-1,4.002013114E0
1.224582317E1,-2.032817997E0,-1.898462868E0,6.583625686E-1,2.858312709E0
1.225581817E1,-3.894725096E-1,-1.091093949E0,6.058592498E-1,1.307379162E0
1.226581217E1,1.051060841E0,1.619713819E-1,7.076154202E-1,1.277373556E0
1.227580717E1,2.000087476E0,8.932107228E-1,7.492446721E-1,2.315068657E0
1.228580217E1,2.197733160E0,1.353329877E0,9.160312361E-1,2.738730732E0
1.229579617E1,1.888226148E0,1.617369670E0,7.723236322E-1,2.603414379E0
1.230579117E1,1.900184581E0,1.614475299E0,3.565924466E-1,2.518807278E0
1.231578617E1,2.332304050E0,1.745216702E0,1.007650673E-2,2.912992457E0
1.232578017E1,3.027747906E0,2.211794690E0,-1.742522889E-1,3.753619186E0
1.233577517E1,3.674147657E0,2.591749687E0,-3.050878322E-1,4.506618025E0
1.234577017E1,3.888770877E0,2.618218862E0,-5.490991580E-1,4.720076146E0
1.235576417E1,3.615253039E0,2.375701500E0,-7.450633281E-1,4.389661891E0
1.236575917E1,3.110129328E0,2.070489707E0,-7.692251927E-1,3.814648013E0
1.237575417E1,2.785183766E0,1.654041068E0,-8.166730088E-1,3.340666890E0
1.238574817E1,2.662265353E0,1.290360627E0,-9.703629792E-1,3.113565748E0
1.239574317E1,2.517219322E0,1.014995361E0,-9.765791541E-1,2.884495717E0
1.240573817E1,2.347102622E0,6.774999207E-1,-7.092427003E-1,2.543800713E0
1.241573317E1,2.090872224E0,3.605983740E-1,-3.400459957E-1,2.148815749E0
1.242572717E1,1.731654670E0,6.653605163E-2,-7.448943436E-2,1.734532680E0
1.243572217E1,1.596596267E0,-4.419442534E-2,8.045768738E-4,1.597208012E0
1.244571717E1,1.899975251E0,5.481823146E-2,-3.319581270E-2,1.901055747E0
1.245571117E1,2.133189693E0,1.230382812E-1,4.128368139E-2,2.137133834E0
1.246570617E1,1.922050682E0,1.031314355E-1,2.651209438E-1,1.942988429E0
1.247570117E1,1.304215896E0,-1.412114275E-1,3.753286797E-1,1.364474767E0
1.248569433E1,5.920836483E-1,-5.927497923E-1,3.495062059E-1,9.077829867E-1
1.249568933E1,-1.345970571E-2,-9.772662020E-1,4.269028759E-1,1.066525414E0
1.250568433E1,-1.636545029E-1,-1.089350894E0,5.788135386E-1,1.244384699E0
1.251567833E1,2.100115210E-2,-9.652852571E-1,7.608905715E-1,1.229297010E0
1.252567333E1,1.001031625E-1,-7.999786234E-1,1.027866252E0,1.306329006E0
1.253566833E1,-5.716735035E-2,-7.126884645E-1,1.229585252E0,1.422347653E0
1.254566233E1,-4.304692389E-1,-7.709939754E-1,1.305875044E0,1.576402584E0
1.255565733E1,-9.424849167E-1,-8.944082326E-1,1.373756540E0,1.890886283E0
1.256565233E1,-1.342943175E0,-9.379781753E-1,1.194366302E0,2.027266705E0
1.257564633E1,-1.438336698E0,-9.952376193E-1,8.034752584E-1,1.924807228E0
1.258564133E1,-1.446707133E0,-9.362971008E-1,3.464159524E-1,1.757730867E0
1.259563633E1,-1.381391542E0,-8.532116747E-1,-2.153763413E-2,1.623784660E0
1.260563033E1,-1.296785255E0,-8.495004469E-1,-4.504402578E-2,1.550913270E0
1.261562533E1,-1.251010619E0,-8.638302183E-1,1.350180566E-1,1.526256889E0
1.262562033E1,-1.397618735E0,-7.401411420E-1,2.706489015E-1,1.604493024E0
1.263561433E1,-1.445176917E0,-9.789858681E-1,3.293520230E-1,1.776350868E0
1.264560933E1,-1.654379476E0,-8.008837724E-1,3.480596048E-1,1.870703545E0
1.265560433E1,-1.722876537E0,-8.008077586E-1,2.817404848E-1,1.920670281E0
1.266559833E1,-1.548914270E0,-8.561200798E-1,3.323686016E-1,1.800707054E0
1.267559333E1,-1.634632844E0,-9.439709866E-1,8.270553249E-1,2.060855712E0
1.268558833E1,-1.836537346E0,-9.636111993E-1,1.020919175E0,2.311642691E0
1.269558233E1,-2.575699957E0,-3.840153033E-1,1.244243052E0,2.886146010E0
1.270557733E1,-1.539482419E0,-1.108583556E0,1.021390461E0,2.154577010E0
1.271557233E1,-4.980802646E-1,-9.054284799E-1,7.223059648E-1,1.260797600E0
1.272556633E1,3.738975371E-1,1.386240345E-1,4.821672499E-1,6.257006058E-1
1.273556133E1,1.211180337E0,4.155101609E-1,2.580832350E-1,1.306221060E0
1.274555633E1,1.580042800E0,2.750477618E-1,-2.128409886E-1,1.617865200E0
1.275555033E1,1.513420648E0,7.535365283E-2,-7.946371919E-1,1.711013880E0
1.276554533E1,1.324341428E0,-1.641675961E-1,-1.353110606E0,1.900457716E0
1.277554033E1,1.032919781E0,-1.061562002E-1,-1.840537426E0,2.113236956E0
1.278553433E1,4.376552111E-1,7.057940125E-2,-2.191073327E0,2.235469942E0
1.279552933E1,-2.960595120E-1,3.200941265E-1,-2.229255645E0,2.271495590E0
1.280552433E1,-2.799988003E-1,1.958653522E-1,-2.103853335E0,2.131422393E0
1.281551833E1,-1.153766928E-1,1.917190915E-1,-1.956777150E0,1.969529082E0
1.282551333E1,-6.395225840E-2,2.515776229E-1,-1.749042535E0,1.768199927E0
1.283550833E1,-8.103716472E-2,4.858743846E-2,-1.651827897E0,1.654528078E0
1.284550233E1,-3.671404216E-1,-3.144685203E-1,-1.211793344E0,1.304655375E0
1.285549733E1,-6.831554939E-1,-6.832816476E-1,-1.281583956E0,1.605002391E0
1.286549233E1,-1.112651683E0,-8.268793237E-1,-1.757964801E0,2.238786150E0
1.287548633E1,-1.597128656E0,-1.126026385E0,-2.222030241E0,2.959083263E0
1.288548133E1,-2.715756267E0,-9.808780271E-1,-2.820897975E0,4.036696569E0
1.289547633E1,-2.574378194E0,-1.186128160E0,-3.134622145E0,4.226130510E0
1.290547033E1,-1.801647888E0,-1.275264285E0,-3.173637691E0,3.865774218E0
1.291546533E1,-1.510140945E0,-1.350399252E0,-3.094963405E0,3.699040725E0
1.292546033E1,-1.619311238E0,-1.231484427E0,-2.824791051E0,3.481115807E0
1.293545533E1,-1.714925493E0,-9.643485332E-1,-2.386259233E0,3.092761010E0
1.294544933E1,-1.522386622E0,-1.014394267E0,-1.999739567E0,2.710279523E0
1.295544433E1,-1.234642216E0,-1.330014104E0,-1.642650692E0,2.447770458E0
1.296543933E1,-1.034834671E0,-1.468027105E0,-1.210152031E0,2.165745672E0
1.297543333E1,-7.158789977E-1,-1.022020791E0,-7.137029564E-1,1.437491268E0
1.298542833E1,-2.541596071E-1,-5.424456114E-1,-3.173073435E-1,6.778851654E-1
1.299542333E1,4.031444693E-1,-5.717536104E-1,-1.730933708E-1,7.206864568E-1
1.300541733E1,1.063488075E0,-6.312408435E-1,-1.585449135E-1,1.246839355E0
1.301541233E1,1.639932760E0,-4.343557370E-1,2.215135789E-1,1.710880659E0
1.302540733E1,1.963728174E0,-1.694347680E-1,9.886665183E-1,2.205084571E0
1.303540133E1,1.633995936E0,3.798491621E-1,2.048443365E0,2.647706238E0
1.304539633E1,1.088659022E0,8.687608829E-1,2.865364296E0,3.185943579E0
1.305539133E1,1.046906394E0,9.108906564E-1,3.257562193E0,3.540825642E0
1.306538533E1,1.666523119E0,8.639167571E-1,3.424680294E0,3.905391989E0
1.307538033E1,2.641698942E0,8.235469955E-1,3.688320723E0,4.610912351E0
1.308537533E1,3.200772280E0,1.110361694E0,4.274864280E0,5.454567893E0
1.309536933E1,3.025829435E0,1.663748908E0,4.939743571E0,6.027003463E0
1.310536433E1,2.827989478E0,1.496910011E0,5.327392334E0,6.214448740E0
1.311535933E1,2.541479127E0,1.120152272E0,5.421852348E0,6.091825683E0
1.312535333E1,2.163801767E0,9.281320488E-1,5.006823998E0,5.532788965E0
1.313534833E1,1.804946887E0,8.849199557E-1,4.140438547E0,4.602624029E0
1.314534333E1,1.839505539E0,7.324982464E-1,3.435280711E0,3.965033149E0
1.315533733E1,2.292195659E0,4.393878508E-1,3.199399354E0,3.960224596E0
1.316533233E1,2.609560305E0,4.482703561E-1,3.246725548E0,4.189508096E0
1.317532733E1,2.783845631E0,7.505328137E-1,3.420545143E0,4.473614319E0
1.318532133E1,2.898414221E0,6.671117574E-1,3.525874547E0,4.612768627E0
1.319531633E1,3.077795395E0,4.924408078E-2,3.374695956E0,4.567693320E0
1.320531133E1,2.917405977E0,-5.434168339E-1,3.069054977E0,4.269151899E0
1.321530533E1,2.461207089E0,-9.637363297E-1,2.615159599E0,3.718250634E0
1.322530033E1,1.973342312E0,-1.352515944E0,2.104296554E0,3.186132961E0
1.323529533E1,1.458136686E0,-1.727178041E0,1.686738113E0,2.820353177E0
1.324528933E1,1.011662887E0,-2.122772001E0,1.216955266E0,2.647754310E0
1.325528433E1,6.436549209E-1,-2.452989997E0,8.788119543E-1,2.683982495E0
1.326527933E1,3.010509876E-1,-2.576981374E0,8.829968065E-1,2.740647380E0
1.327527333E1,-2.152316593E-1,-2.868214229E0,8.517978179E-1,2.999756165E0
1.328526833E1,-7.005645552E-1,-3.018764244E0,8.785412282E-1,3.221112067E0
1.329526333E1,-9.593219011E-1,-2.892877200E0,1.044674073E0,3.221859854E0
1.330525733E1,-1.161862215E0,-3.076980878E0,8.755731815E-1,3.403580985E0
1.331525233E1,-1.419612598E0,-3.343804531E0,5.787527275E-1,3.678489280E0
1.332524733E1,-1.907712725E0,-3.248141159E0,-2.808730504E-1,3.777390435E0
1.333524133E1,-3.049194909E0,-2.751839435E0,-2.496733602E0,4.806650449E0
1.334523633E1,-2.617306697E0,-2.472389889E0,-3.144822612E0,4.780472296E0
1.335523133E1,-1.794490896E0,-2.555927889E0,-2.467213933E0,3.979963510E0
1.336522533E1,-1.553391483E0,-2.158670397E0,-2.143100139E0,3.415517704E0
1.337522033E1,-1.316457042E0,-1.720436786E0,-2.096624714E0,3.014763187E0
1.338521533E1,-9.079481913E-1,-1.336686362E0,-1.796392118E0,2.416221221E0
1.339521033E1,-4.709253931E-1,-1.102070342E0,-1.386723033E0,1.832847657E0
1.340520433E1,-2.073451906E-1,-9.552508503E-1,-1.099216024E0,1.470976574E0
1.341519933E1,-2.850254506E-2,-6.292609763E-1,-5.608166859E-1,8.433843291E-1
1.342519433E1,8.700452238E-2,-3.850052369E-1,1.655232731E-1,4.280149218E-1
1.343518833E1,1.844287831E-1,-3.567017895E-1,6.263063782E-1,7.439824071E-1
1.344518333E1,6.831711352E-2,-3.004796416E-1,7.001698682E-1,7.649791417E-1
1.345517833E1,-2.764795987E-1,-3.536916429E-1,4.565842196E-1,6.403185897E-1
1.346517233E1,-7.099673165E-1,-4.489802080E-1,6.473774046E-2,8.425127849E-1
1.347516733E1,-1.047349467E0,-5.006473750E-1,-3.383555657E-1,1.209162185E0
1.348516283E1,-1.214161466E0,-4.599601096E-1,-5.457606903E-1,1.408405517E0
1.349515683E1,-1.205906367E0,-3.719086432E-1,-5.001889533E-1,1.357466462E0
1.350515183E1,-1.005278166E0,-3.649106956E-1,-3.974530819E-1,1.140926360E0
1.351514683E1,-7.662814119E-1,-2.273853528E-1,-2.065976241E-1,8.255748781E-1
1.352514083E1,-4.705374303E-1,-1.339901161E-1,-5.846923292E-3,4.892780509E-1
1.353513583E1,-3.210871299E-1,-2.164832193E-1,1.199407187E-1,4.053982057E-1
1.354513083E1,-2.983275738E-1,-2.159780198E-1,3.817629558E-1,5.304609324E-1
1.355512483E1,-1.996740822E-1,-2.848886257E-1,6.178518891E-1,7.090643307E-1
1.356511983E1,-1.611551106E-1,-5.219867885E-1,6.950784051E-1,8.840673992E-1
1.357511483E1,-5.810502447E-1,-6.292065972E-1,6.690004081E-1,1.086775908E0
1.358510883E1,-9.189928508E-1,-6.941539603E-1,6.461956823E-1,1.320593215E0
1.359510383E1,-8.269727330E-1,-6.672474128E-1,5.847470006E-1,1.212861107E0
1.360509883E1,-4.288127227E-1,-3.351284873E-1,4.636926797E-1,7.149841644E-1
1.361509283E1,8.366166919E-2,-4.331208050E-2,3.489571524E-1,3.614502807E-1
1.362508783E1,2.675520699E-1,-4.450725138E-2,3.582135871E-1,4.493127858E-1
1.363508283E1,-7.640015826E-2,-2.915889502E-2,8.214535461E-1,8.255138726E-1
1.364507683E1,-2.303783964E-1,-2.395639336E-1,1.182082326E0,1.227918445E0
1.365507183E1,-1.872056258E-1,-5.293841010E-1,1.078705746E0,1.216100143E0
1.366506683E1,-2.459594719E-1,-4.705973643E-1,7.970629093E-1,9.577406865E-1
1.367506083E1,-3.151799802E-1,-3.063835752E-1,4.455287428E-1,6.258635441E-1
1.368505583E1,-3.007651319E-1,-2.485780013E-1,7.544209197E-2,3.974194214E-1
1.369505083E1,-2.831063944E-1,-3.497576362E-1,-2.641368574E-1,5.217738150E-1
1.370504483E1,-3.807428359E-1,-4.066229779E-1,-5.034330616E-1,7.508343364E-1
1.371503983E1,-4.023334605E-1,-3.201952833E-1,-3.513024706E-1,6.227444570E-1
1.372503483E1,8.194068745E-3,-3.097644353E-1,-7.252286956E-2,3.182463114E-1
1.373502883E1,3.811313834E-1,-2.202529192E-1,3.420504212E-2,4.415228927E-1
1.374502383E1,1.797808313E-1,-2.234835058E-1,2.172130980E-2,2.876418607E-1
1.375501883E1,-8.636023231E-2,-2.934507036E-1,-1.429742899E-1,3.376581892E-1
1.376501383E1,-1.382495204E-1,-3.552657133E-1,-3.948846924E-1,5.488720955E-1
1.377500783E1,-1.398202287E-1,-3.835574663E-1,-6.155801728E-1,7.386507804E-1
1.378500283E1,-1.094721562E-1,-3.532677197E-1,-7.455346868E-1,8.322284566E-1
1.379499783E1,-1.694135718E-1,-3.006614900E-1,-7.244168097E-1,8.024200920E-1
1.380499183E1,-1.802073857E-1,-3.000820309E-1,-5.531664813E-1,6.546121624E-1
1.381498683E1,-1.405963004E-2,-2.086473656E-1,-5.759839978E-1,6.127715415E-1
1.382498183E1,-2.621642992E-2,-5.348038852E-2,-7.720732983E-1,7.743672456E-1
1.383497583E1,-2.543641866E-1,-9.623932242E-2,-9.815188088E-1,1.018500034E0
1.384497083E1,-6.627677147E-1,-1.888709128E-1,-1.318679861E0,1.487901153E0
1.385496583E1,-1.357398808E0,-2.582949042E-1,-1.642371780E0,2.146306792E0
1.386495983E1,-1.506637585E0,-8.346479344E-1,-2.035357296E0,2.666322057E0
1.387495483E1,-1.546644527E0,-1.247901070E0,-2.521584268E0,3.210569045E0
1.388494983E1,-1.727231690E0,-1.329970835E0,-2.760196860E0,3.517220271E0
1.389494383E1,-1.595138410E0,-1.427560864E0,-2.730588899E0,3.469655934E0
1.390493883E1,-8.836910172E-1,-1.534873059E0,-2.495513873E0,3.060120032E0
1.391493383E1,-4.085734628E-2,-1.294254872E0,-2.176434823E0,2.532515258E0
1.392492783E1,1.723414920E-1,-8.221734846E-1,-1.940322500E0,2.114360952E0
1.393492283E1,3.274970669E-1,-5.816301423E-1,-1.831774351E0,1.949601298E0
1.394491783E1,4.342661284E-1,-4.619160032E-1,-2.005274103E0,2.103111431E0
1.395491183E1,8.156082308E-1,-4.512828416E-1,-2.253234492E0,2.438429549E0
1.396490683E1,1.042141644E0,-2.350498831E-1,-2.332605767E0,2.565610515E0
1.397490183E1,1.333266764E0,7.179562211E-2,-2.237408126E0,2.605522979E0
1.398489583E1,1.757638234E0,4.102634543E-1,-1.991429504E0,2.687638319E0
1.399489083E1,2.198068059E0,9.023499209E-1,-1.621317710E0,2.876527366E0
1.400488583E1,2.370987767E0,1.434702069E0,-1.329433476E0,3.073653589E0
1.401487983E1,2.696787022E0,1.654393655E0,-1.092477400E0,3.347115994E0
1.402487483E1,2.813973117E0,1.621846883E0,-8.468414256E-1,3.356482149E0
1.403486983E1,2.633776841E0,1.420807915E0,-7.164414999E-1,3.077135682E0
1.404486383E1,2.380879356E0,1.031407326E0,-6.657122263E-1,2.678723641E0
1.405485883E1,2.050138911E0,7.061091775E-1,-5.960815358E-1,2.248771425E0
1.406485383E1,1.633953836E0,5.205612373E-1,-5.653205037E-1,1.805651243E0
1.407484783E1,1.300155590E0,2.888787657E-1,-6.233877406E-1,1.470533160E0
1.408484283E1,1.059584473E0,1.138066971E-1,-6.667808050E-1,1.257087054E0
1.409483783E1,8.588572345E-1,7.744286299E-2,-6.071970928E-1,1.054666514E0
1.410483183E1,7.058351623E-1,1.071016949E-1,-4.397480392E-1,8.384821927E-1
1.411482683E1,5.068417691E-1,1.436842149E-1,-2.543907183E-1,5.850199741E-1
1.412482183E1,3.017811952E-1,-4.825122356E-2,1.136172473E-2,3.058253736E-1
1.413481683E1,1.110672583E-1,-2.944429761E-1,3.935521120E-1,5.039006518E-1
1.414481083E1,-1.822178412E-1,-5.572051531E-1,7.783901185E-1,9.744599021E-1
1.415480583E1,-4.277678618E-1,-8.453793293E-1,1.226480380E0,1.549808271E0
1.416480083E1,-4.197630236E-1,-7.410574007E-1,1.665096399E0,1.870270858E0
1.417479483E1,-7.485738502E-1,-6.077046311E-1,2.002823389E0,2.222829110E0
1.418478983E1,-6.432571641E-1,-6.339030808E-1,2.410629258E0,2.574246747E0
1.419478483E1,-2.318333298E-2,-6.962028247E-1,2.927692106E0,3.009421358E0
1.420477883E1,2.805036891E-1,-5.305178761E-1,3.244002500E0,3.299042854E0
1.421477383E1,4.232538113E-1,-4.306690675E-1,3.277339815E0,3.332502948E0
1.422476883E1,4.421967801E-1,-1.897263604E-1,2.932952846E0,2.972161921E0
1.423476283E1,4.813546331E-1,-4.662218928E-2,2.206932145E0,2.259297547E0
1.424475783E1,5.782333486E-1,-1.252128607E-1,1.239719061E0,1.373657678E0
1.425475283E1,2.570393609E-1,-1.632606930E-1,4.057008719E-1,5.072637227E-1
1.426474683E1,-3.127815986E-1,6.280260444E-2,1.655317515E-1,3.594123764E-1
1.427474183E1,-5.336151463E-1,1.155824965E-1,1.114947081E-2,5.461032398E-1
1.428473683E1,-5.150009738E-1,-2.151962471E-1,-1.335638541E-1,5.739117797E-1
1.429473083E1,-5.054097860E-1,-4.088460892E-1,-1.851672864E-1,6.759298043E-1
1.430472583E1,-6.629377225E-1,-2.346458405E-1,-8.457354248E-2,7.083062745E-1
1.431472083E1,-6.746018214E-1,-1.162824082E-1,2.395311892E-2,6.849693189E-1
1.432471483E1,-5.608451179E-1,-2.259048378E-1,6.741722703E-2,6.083792605E-1
1.433470983E1,-6.886116039E-1,-5.659537572E-1,4.959894830E-1,1.020046648E0
1.434470483E1,-8.706993080E-1,-6.827150524E-1,1.013231256E0,1.500284875E0
1.435469883E1,-5.307842899E-1,-7.036293733E-1,6.811205167E-1,1.113890217E0
1.436469383E1,-4.570330665E-1,-8.313302243E-1,7.625657988E-1,1.217167106E0
1.437468883E1,-2.079709889E-1,-8.429708612E-1,5.774242401E-1,1.042722666E0
1.438468283E1,-3.586378026E-1,-8.160836095E-1,9.101284719E-1,1.273949515E0
1.439467783E1,-2.009707023E-1,-6.902714092E-1,7.868755978E-1,1.065850387E0
1.440467283E1,-2.017900434E-1,-5.365627277E-1,4.680608422E-1,7.400673850E-1
1.441466683E1,-4.008571847E-1,-3.936860132E-1,2.336576611E-1,6.084990239E-1
1.442466183E1,-4.802376688E-1,-5.155016416E-1,-2.390517175E-1,7.439864815E-1
1.443465683E1,-4.919084188E-1,-5.771698862E-1,-4.425956333E-1,8.780602853E-1
1.444465083E1,-5.530642281E-1,-5.222931826E-1,-1.522498012E-1,7.757900560E-1
1.445464583E1,-6.607208238E-1,-6.751698053E-1,1.724150938E-1,9.602776877E-1
1.446464083E1,-7.694295529E-1,-8.863507694E-1,2.925835615E-1,1.209646504E0
1.447463583E1,-9.344882646E-1,-8.966722745E-1,2.285267293E-1,1.315109863E0
1.448463042E1,-8.453957746E-1,-8.230944210E-1,-1.504716629E-1,1.189462132E0
1.449462542E1,-7.244258729E-1,-9.361965287E-1,-6.171677649E-1,1.334972972E0
1.450462042E1,-1.290440003E0,-9.654910791E-1,-6.478726637E-1,1.736993786E0
1.451461442E1,-1.030887801E0,-2.387967789E-1,-7.027698326E-1,1.270290910E0
1.452460942E1,-8.917505269E-1,-3.463609886E-1,-5.505942911E-1,1.103783951E0
1.453460442E1,-9.651506981E-1,-5.659104878E-1,-5.806507337E-1,1.260526011E0
1.454459842E1,-8.085394587E-1,-3.824535120E-1,-3.789592159E-1,9.713994196E-1
1.455459342E1,-8.967728466E-1,-6.557278132E-1,-1.310969138E-1,1.118645120E0
1.456458842E1,-1.148792300E0,-7.894887185E-1,6.905152380E-2,1.395630430E0
1.457458242E1,-1.188731925E0,-8.897637892E-1,2.160733294E-1,1.500483547E0
1.458457742E1,-1.418500750E0,-1.050889079E0,3.704333907E-1,1.803810725E0
1.459457242E1,-1.497059700E0,-1.131577147E0,4.986289161E-1,1.941722272E0
1.460456642E1,-1.346392301E0,-1.118326187E0,7.593007135E-1,1.907868775E0
1.461456142E1,-1.227179415E0,-1.059313163E0,1.089286575E0,1.953115187E0
1.462455642E1,-1.020037269E0,-8.896480143E-1,1.327571138E0,1.895888906E0
1.463455042E1,-8.390436519E-1,-8.598763311E-1,1.291150585E0,1.763647184E0
1.464454542E1,-7.059708908E-1,-8.263864034E-1,9.742297429E-1,1.459600280E0
1.465454042E1,-5.760852643E-1,-1.212273985E-1,5.721558988E-1,8.209340329E-1
1.466453442E1,-1.221349595E-1,1.126846164E-1,1.648160523E-1,2.340493585E-1
1.467452942E1,7.001784197E-1,2.733140624E-1,-1.054451787E-1,7.589921487E-1
1.468452442E1,1.325088556E0,5.323258352E-1,-2.868918818E-1,1.456549837E0
1.469451842E1,1.654511476E0,8.842410940E-1,-4.543128687E-1,1.930204839E0
1.470451342E1,1.823137721E0,1.242251490E0,-7.560537547E-1,2.332088590E0
1.471450842E1,1.829275981E0,1.677672590E0,-1.209706473E0,2.761200045E0
1.472450242E1,1.733603108E0,2.022967631E0,-1.707844223E0,3.164571008E0
1.473449742E1,2.226816479E0,2.040012850E0,-2.160346209E0,3.713146886E0
1.474449242E1,2.818295379E0,1.673074924E0,-2.506156974E0,4.125868554E0
1.475448742E1,2.794520893E0,1.660213974E0,-2.505304450E0,4.103925907E0
1.476448142E1,2.397750473E0,1.789120520E0,-2.186179792E0,3.705339614E0
1.477447642E1,2.107076028E0,1.613471332E0,-1.961619814E0,3.300153242E0
1.478447142E1,1.955440477E0,1.288818716E0,-1.722216094E0,2.907031031E0
1.479446542E1,1.710658780E0,9.548409605E-1,-1.335057912E0,2.370749745E0
1.480446042E1,1.361297585E0,6.404484540E-1,-1.022720702E0,1.819137975E0
1.481445542E1,1.072609512E0,3.718501711E-1,-7.769417632E-1,1.375646109E0
1.482444942E1,8.099782392E-1,6.959063709E-2,-5.101286352E-1,9.597597768E-1
1.483444442E1,5.462847470E-1,-2.113207126E-1,-2.821012580E-1,6.501265939E-1
1.484443942E1,2.785387323E-1,-3.759923387E-1,-5.798040569E-2,4.715037556E-1
1.485443342E1,4.265697308E-2,-4.621142238E-1,1.473229373E-1,4.869016544E-1
1.486442842E1,-1.601637883E-1,-5.950483328E-1,2.829789251E-1,6.780944105E-1
1.487442342E1,-5.237291126E-1,-9.411929744E-1,4.011213326E-1,1.149362746E0
1.488441742E1,-1.126519963E0,-1.210733244E0,4.424213862E-1,1.711916732E0
1.489441242E1,-1.688696346E0,-1.416301466E0,4.806686085E-1,2.255803072E0
1.490440742E1,-2.158417797E0,-1.834823527E0,5.001006603E-1,2.876707395E0
1.491440142E1,-2.645242062E0,-2.091319828E0,4.914923894E-1,3.407710222E0
1.492439642E1,-2.964507930E0,-2.074012654E0,4.144225788E-1,3.641645484E0
1.493439142E1,-2.899246864E0,-1.951138680E0,1.756731623E-1,3.499062101E0
1.494438542E1,-2.598058540E0,-1.758157175E0,-3.367236078E-2,3.137221486E0
1.495438042E1,-2.217555221E0,-1.520110593E0,-2.438125205E-1,2.699579952E0
1.496437542E1,-1.905962799E0,-1.174558275E0,-3.600563371E-1,2.267580627E0
1.497436942E1,-1.477073771E0,-6.917723894E-1,-3.176611000E-1,1.661687256E0
1.498436442E1,-9.148856203E-1,-3.539319634E-1,-3.140767568E-1,1.030013467E0
1.499435942E1,-5.389369896E-1,-1.764286226E-1,-4.018148124E-1,6.950073965E-1
1.500435342E1,-2.488134979E-1,2.931209207E-3,-4.885038775E-1,5.482269485E-1
1.501434842E1,-6.019679278E-2,1.684185219E-1,-4.552805829E-1,4.891511643E-1
1.502434342E1,4.888184577E-2,3.919096291E-2,-2.543895489E-1,2.619912384E-1
1.503433742E1,-8.734687686E-2,-3.587652719E-1,8.453144252E-2,3.787975211E-1
1.504433242E1,-3.004960138E-1,-3.514667773E-1,5.431478620E-1,7.133276595E-1
1.505432742E1,-4.392738301E-1,1.452284646E-1,1.068381025E0,1.164255478E0
1.506432242E1,-2.874850819E-1,2.830093306E-1,1.441797665E0,1.497171486E0
1.507431642E1,1.188253623E-1,3.441361231E-1,1.545379921E0,1.587686442E0
1.508431142E1,4.569259894E-1,5.365177041E-1,1.483232204E0,1.642135920E0
1.509430642E1,8.523825395E-1,7.631996369E-1,1.316372550E0,1.744094714E0
1.510430042E1,1.213865890E0,9.403562379E-1,1.208713616E0,1.954156815E0
1.511429542E1,1.256578923E0,1.234129123E0,1.155201652E0,2.106313400E0
1.512429042E1,1.715350294E0,1.013234180E0,1.196453758E0,2.323913021E0
1.513428442E1,1.948715301E0,6.104001975E-1,1.274998237E0,2.407426059E0
1.514427942E1,1.680201511E0,8.818402272E-1,1.341309755E0,2.323753680E0
1.515427442E1,1.344432461E0,1.213253978E0,1.374082814E0,2.273232817E0
1.516426842E1,1.308648378E0,1.105105047E0,1.231354619E0,2.109514622E0
1.517426342E1,1.417116275E0,7.363784587E-1,9.146214724E-1,1.840381539E0
1.518425842E1,1.313040076E0,5.821838737E-1,5.371111965E-1,1.533460381E0
1.519425242E1,1.129591286E0,5.686154097E-1,2.648361844E-1,1.292067398E0
1.520424742E1,1.024764450E0,4.921145332E-1,1.187610430E-1,1.142988660E0
1.521424242E1,9.841309793E-1,3.888959742E-1,8.441683710E-2,1.061546073E0
1.522423642E1,9.020493740E-1,2.724545217E-1,9.121773362E-2,9.467022839E-1
1.523423142E1,6.881759132E-1,2.893377721E-2,1.239083469E-1,6.998403600E-1
1.524422642E1,4.244694109E-1,-1.944988579E-1,1.291018438E-1,4.844289139E-1
1.525422042E1,2.427068120E-1,-3.204817969E-1,8.133769333E-2,4.101597239E-1
1.526421542E1,1.827589644E-1,-3.504674882E-1,-1.309776306E-3,3.952594273E-1
1.527421042E1,1.985807991E-1,-2.815451878E-1,-7.267621279E-2,3.521134171E-1
1.528420442E1,2.631282127E-1,-1.692160821E-1,-9.418811917E-2,3.267138512E-1
1.529419942E1,2.960651399E-1,-1.034612185E-1,1.009287894E-2,3.137844117E-1
1.530419442E1,2.403673410E-1,-1.147814280E-1,1.163894123E-1,2.906849328E-1
1.531418842E1,1.847841476E-1,-1.495361084E-1,9.883899450E-2,2.574400430E-1
1.532418342E1,1.456972651E-1,-1.762871200E-1,-9.083006322E-2,2.460791379E-1
1.533417842E1,1.476236303E-1,-1.285212153E-1,-3.287667167E-1,3.826199067E-1
1.534417342E1,2.356419137E-1,-2.843734860E-2,-4.827624965E-1,5.379548515E-1
1.535416742E1,2.906323457E-1,4.688648343E-2,-4.576972371E-1,5.441987354E-1
1.536416242E1,3.027943350E-1,8.160257220E-2,-3.112654155E-1,4.418478788E-1
1.537415742E1,3.052182982E-1,1.369417906E-1,-1.788113630E-1,3.793214562E-1
1.538415142E1,2.853338181E-1,1.725302839E-1,-1.345783460E-1,3.595739393E-1
1.539414642E1,2.899252711E-1,1.645201832E-1,-1.651265395E-1,3.720085047E-1
1.540414142E1,3.356080321E-1,1.361986095E-1,-2.475371969E-1,4.386997564E-1
1.541413542E1,3.641401787E-1,6.666585982E-2,-3.136540031E-1,4.852022674E-1
1.542413042E1,3.420161419E-1,-1.785739660E-3,-3.076044738E-1,4.599986332E-1
1.543412542E1,3.675862718E-1,6.250498116E-2,-2.498129332E-1,4.488129248E-1
1.544411942E1,3.894564298E-1,1.420154196E-1,-1.295550030E-1,4.343146197E-1
1.545411442E1,3.964798494E-1,1.217121327E-1,-4.430961549E-2,4.171012542E-1
1.546410942E1,3.291441179E-1,3.935526967E-2,-4.289868236E-2,3.342528752E-1
1.547410342E1,2.092685226E-1,-5.479601204E-2,-1.127512747E-1,2.439441892E-1
1.548409842E1,3.385022577E-2,-1.502161396E-1,-2.260931182E-1,2.735485779E-1
1.549409321E1,-9.963626236E-2,-2.223731196E-1,-3.175003016E-1,4.002294724E-1
1.550408721E1,-1.815234661E-1,-2.535539818E-1,-3.261740613E-1,4.512537077E-1
1.551408221E1,-1.997026605E-1,-2.840589058E-1,-2.809592968E-1,4.466640136E-1
1.552407721E1,-1.888859146E-1,-3.176388806E-1,-1.850012255E-1,4.132769055E-1
1.553407121E1,-2.292541595E-1,-3.867284113E-1,-1.423551428E-1,4.715732398E-1
1.554406621E1,-3.534031924E-1,-4.835887080E-1,-1.575117105E-1,6.193236584E-1
1.555406121E1,-5.153540725E-1,-5.150853199E-1,-2.052963263E-1,7.570001905E-1
1.556405521E1,-5.911966257E-1,-4.460794044E-1,-2.713950062E-1,7.887683656E-1
1.557405021E1,-5.341660636E-1,-3.842831057E-1,-3.563018399E-1,7.483033409E-1
1.558404521E1,-4.487012959E-1,-3.989473379E-1,-4.198891407E-1,7.326654911E-1
1.559404021E1,-4.700582510E-1,-3.924990284E-1,-3.707450473E-1,7.158646079E-1
1.560403421E1,-5.478730335E-1,-3.252882081E-1,-2.213147736E-1,6.745053804E-1
1.561402921E1,-5.558815628E-1,-3.077389598E-1,-1.068128425E-1,6.442954000E-1
1.562402421E1,-4.797069974E-1,-3.300899416E-1,-1.808894634E-2,5.825850864E-1
1.563401821E1,-3.371558267E-1,-3.032658398E-1,2.896418273E-2,4.544041647E-1
1.564401321E1,-2.172981384E-1,-2.612302065E-1,2.995879412E-2,3.411117575E-1
1.565400821E1,-1.774700483E-1,-1.851842433E-1,-1.788721740E-2,2.571162666E-1
1.566400221E1,-1.954707199E-1,-1.009287894E-1,-2.154582024E-2,2.210421798E-1
1.567399721E1,-2.141872004E-1,-8.399934590E-2,1.514194965E-2,2.305673992E-1
1.568399221E1,-2.570009520E-1,-9.124229193E-2,1.297134626E-1,3.019937541E-1
1.569398621E1,-3.195558903E-1,-1.257794559E-1,2.623212969E-1,4.321445376E-1
1.570398121E1,-3.120528893E-1,-2.259141934E-1,3.320867658E-1,5.086215179E-1
1.571397621E1,-2.487086317E-1,-2.751535964E-1,2.854119515E-1,4.680015675E-1
1.572397021E1,-1.798065774E-1,-2.082433230E-1,1.583180416E-1,3.174276124E-1
1.573396521E1,-1.022267068E-1,-1.057632673E-1,2.234104156E-2,1.487793347E-1
1.574396021E1,-3.616976140E-2,-6.108176887E-2,-1.067882842E-1,1.282301516E-1
1.575395421E1,-3.829535220E-2,-6.340369821E-2,-1.696610552E-1,1.851254618E-1
1.576394921E1,1.335709256E-1,-3.542863047E-1,-2.280232841E-1,4.419893618E-1
1.577394421E1,-3.498312015E-1,2.850576103E-2,-8.982785046E-2,3.623030370E-1
1.578393821E1,-7.629662599E-1,1.920020968E-1,5.363300085E-2,7.885802545E-1
1.579393321E1,-4.487349173E-1,-2.286536139E-1,-6.363992572E-2,5.076372143E-1
1.580392821E1,-1.670533432E-1,-5.485512739E-1,-2.048127615E-1,6.089035941E-1
1.581392221E1,-2.227075255E-1,-4.766778839E-1,-2.546824944E-1,5.845370988E-1
1.582391721E1,-5.730118581E-1,-1.912939990E-1,-2.838899213E-1,6.674799405E-1
1.583391221E1,-6.926116110E-1,-1.652733046E-1,-2.931057179E-1,7.700240716E-1
1.584390621E1,-7.565987883E-1,-2.205762702E-1,-2.175292861E-1,8.175662712E-1
1.585390121E1,-8.322976461E-1,-3.584524459E-1,-1.474246788E-1,9.181184910E-1
1.586389621E1,-8.878024869E-1,-4.723620540E-1,-1.347789055E-1,1.014635166E0
1.587389121E1,-1.008658002E0,-5.715010107E-1,-1.939515585E-1,1.175423999E0
1.588388521E1,-1.023455551E0,-6.407028079E-1,-3.071945840E-1,1.245925305E0
1.589388021E1,-9.342861702E-1,-6.324079478E-1,-4.432025743E-1,1.212129936E0
1.590387521E1,-8.847675627E-1,-6.475487280E-1,-4.785817373E-1,1.196316628E0
1.591386921E1,-1.096968427E0,-8.183692861E-1,-4.807586557E-1,1.450585021E0
1.592386421E1,-1.401412554E0,-9.040473676E-1,-5.716302341E-1,1.762957718E0
1.593385921E1,-1.520980367E0,-8.772232658E-1,-7.221942830E-1,1.898543262E0
1.594385321E1,-1.411562005E0,-8.251257437E-1,-8.798469114E-1,1.856736485E0
1.595384821E1,-1.128317032E0,-6.272471952E-1,-9.747314340E-1,1.617603084E0
1.596384321E1,-7.729554239E-1,-3.322721225E-1,-9.341324615E-1,1.257166777E0
1.597383721E1,-4.194323270E-1,-1.505067462E-1,-7.815786052E-1,8.996893206E-1
1.598383221E1,-1.067315662E-1,2.375255942E-2,-5.820505571E-1,5.922319329E-1
1.599382721E1,1.489285827E-1,2.086368406E-1,-2.960848743E-1,3.916315957E-1
1.600382121E1,3.373961838E-1,2.614237493E-1,-1.189440608E-2,4.269895062E-1
1.601381621E1,4.415741247E-1,3.131868106E-1,1.582127917E-1,5.640079551E-1
1.602381121E1,4.771010761E-1,3.880042738E-1,2.452398258E-1,6.620538690E-1
1.603380521E1,6.111977577E-1,4.635239875E-1,4.226203752E-1,8.757997303E-1
1.604380021E1,7.390950751E-1,4.274887669E-1,6.278237307E-1,1.059797534E0
1.605379521E1,6.571826005E-1,1.400834996E-1,8.284674275E-1,1.066710193E0
1.606378921E1,2.869981550E-1,-1.117478925E-1,9.819439745E-1,1.029111025E0
1.607378421E1,-1.617898259E-1,-1.038722777E-1,1.028379638E0,1.046197915E0
1.608377921E1,-3.106271920E-1,-2.538802564E-2,9.490095323E-1,9.988758165E-1
1.609377321E1,-1.235069355E-1,-2.728310823E-2,7.951143247E-1,8.051118683E-1
1.610376821E1,1.558750749E-1,3.959734440E-2,5.984783095E-1,6.197106386E-1
1.611376321E1,3.737201107E-1,2.333413267E-1,4.179513735E-1,6.072876143E-1
1.612375721E1,5.219557983E-1,3.931416374E-1,2.855318195E-1,7.131105261E-1
1.613375221E1,6.207383671E-1,4.493269479E-1,2.192039287E-1,7.970327402E-1
1.614374721E1,6.274296284E-1,4.630579644E-1,2.392891145E-1,8.156898291E-1
1.615374221E1,6.264958280E-1,4.815983158E-1,2.719960999E-1,8.357127729E-1
1.616373621E1,6.839669412E-1,4.806574988E-1,2.458485210E-1,8.713689822E-1
1.617373121E1,8.227392027E-1,5.275106531E-1,1.345999807E-1,9.865517927E-1
1.618372621E1,9.381661633E-1,6.047857010E-1,-2.319824338E-2,1.116449575E0
1.619372021E1,9.946534824E-1,6.776151109E-1,-1.446899360E-1,1.212201702E0
1.620371521E1,1.063051580E0,6.824069041E-1,-2.107558715E-1,1.280693516E0
1.621371021E1,1.090253412E0,6.677064192E-1,-2.299060875E-1,1.298976972E0
1.622370421E1,1.064663073E0,5.920791167E-1,-2.091806316E-1,1.236050838E0
1.623369921E1,9.999145147E-1,4.342434704E-1,-1.027385026E-1,1.094966496E0
1.624369421E1,8.806687376E-1,2.794887221E-1,9.363146424E-3,9.240016448E-1
1.625368821E1,7.437247543E-1,1.778904265E-1,6.883751571E-2,7.677956223E-1
1.626368321E1,6.431256017E-1,1.406179351E-1,7.594889939E-2,6.626855805E-1
1.627367821E1,5.771098061E-1,1.280470061E-1,-4.757060766E-2,5.930554163E-1
1.628367221E1,6.004165153E-1,1.431439322E-1,-2.325607234E-1,6.596019006E-1
